timestamp,ros_time,gyro_x,gyro_y,gyro_z,acc_x,acc_y,acc_z
1695668703096986112,1695668703192314230,-0.00384127045981586,0.012444965541362762,-0.03142485395073891,-1.5950753688812256,-0.08672626316547394,9.814645767211914
1695668703106551040,1695668703192314230,0.0029823093209415674,0.005221827886998653,-0.03032582998275757,-1.5760051012039185,-0.03753482177853584,9.813664436340332
1695668703116808960,1695668703192314230,0.018436696380376816,0.0068303425796329975,-0.025038715451955795,-1.5705419778823853,-0.02380729466676712,9.810461044311523
1695668703127779072,1695668703192314230,0.0025566541589796543,0.011766424402594566,-0.030246926471590996,-1.533603310585022,0.0161461029201746,9.773524284362793
1695668703137259008,1695668703192314230,0.00862850807607174,0.004448556806892157,-0.02463984116911888,-1.5386009216308594,0.029950672760605812,9.72601318359375
1695668703146572032,1695668703192314230,0.007750303950160742,0.0015225575771182775,-0.022606220096349716,-1.5345017910003662,0.054029181599617004,9.700042724609375
1695668703156577024,1695668703192808397,-0.007332312874495983,-0.0023842311929911375,-0.016662318259477615,-1.5314115285873413,0.07290315628051758,9.698939323425293
1695668703166579968,1695668703192808397,-0.009805829264223576,-0.002524574054405093,-0.011729428544640541,-1.5660444498062134,0.05006633698940277,9.703948020935059
1695668703176439040,1695668703192808397,-0.005316455848515034,0.0015897630946710706,-0.006889126263558865,-1.556228756904602,0.05312931165099144,9.700128555297852
1695668703187073024,1695668703192808397,-0.0028580832295119762,-0.00304000754840672,-0.009399757720530033,-1.5948882102966309,0.0690363198518753,9.686067581176758
1695668703196541184,1695668703196839340,-0.007231391500681639,-0.0012410946656018496,-0.009680704213678837,-1.6034175157546997,0.08541778475046158,9.644336700439453
1695668703206510080,1695668703206924686,-0.003500300459563732,-0.004062044434249401,-0.007055325899273157,-1.6146622896194458,0.08955885469913483,9.611257553100586
1695668703216485888,1695668703217018931,0.007246844470500946,-0.004318709950894117,-0.0015355392824858427,-1.6311861276626587,0.075463205575943,9.586884498596191
1695668703227111936,1695668703229122705,0.004486065357923508,-0.001612742547877133,-0.010250463150441647,-1.6150504350662231,0.058674417436122894,9.584136009216309
1695668703236504064,1695668703237196798,0.0011981343850493431,-0.006157399620860815,0.0019664689898490906,-1.6418207883834839,0.02453077770769596,9.603413581848145
1695668703251090176,1695668703259394829,-0.00961342640221119,0.008310431614518166,0.002876712242141366,-1.6374561786651611,0.005545187275856733,9.647154808044434
1695668703256592128,1695668703259394829,0.0008260096656158566,0.0009797537932172418,0.0046513983979821205,-1.632771611213684,-0.009177859872579575,9.676928520202637
1695668703266458112,1695668703267467511,-0.00307111325673759,0.0011903070844709873,0.009464409202337265,-1.6089398860931396,-0.0470733605325222,9.685991287231445
1695668703276578816,1695668703277555537,0.007943187840282917,0.004795994609594345,0.006501983385533094,-1.5774176120758057,-0.047174982726573944,9.700701713562012
1695668703286535936,1695668703285626548,0.011836359277367592,-0.002293767873197794,0.02056713216006756,-1.554556965827942,-0.050248611718416214,9.711721420288086
1695668703296519168,1695668703298070754,0.0034218011423945427,0.002500266535207629,0.006186549551784992,-1.5155246257781982,-0.05600040405988693,9.716401100158691
1695668703306518016,1695668703306136648,0.006009318400174379,-0.003553604707121849,-0.0006130565889179707,-1.5020254850387573,-0.05667392909526825,9.758047103881836
1695668703316551936,1695668703316219339,0.007664745207875967,0.0032903077080845833,0.006377269979566336,-1.5441659688949585,-0.1049378290772438,9.790818214416504
1695668703326550016,1695668703326305183,0.008033241145312786,-0.0025054796133190393,0.011201955378055573,-1.5406688451766968,-0.10948587208986282,9.80743408203125
1695668703336527104,1695668703336394447,0.02349410206079483,0.007399484980851412,0.004810448735952377,-1.54616117477417,-0.08053143322467804,9.792415618896484
1695668703346457088,1695668703346467399,0.0230675358325243,-0.008051363751292229,0.011777997016906738,-1.5576770305633545,-0.07645780593156815,9.769451141357422
1695668703356512000,1695668703356536639,0.015556189231574535,0.006190252490341663,0.009139473550021648,-1.5467854738235474,-0.043480124324560165,9.706064224243164
1695668703367523840,1695668703368644068,0.022273877635598183,0.003977663349360228,-0.0014225670602172613,-1.5302914381027222,-0.049993593245744705,9.665385246276855
1695668703376528128,1695668703376710329,0.011704424396157265,-0.00511710112914443,-0.002515080850571394,-1.5306724309921265,-0.048837125301361084,9.619266510009766
1695668703386553088,1695668703386786120,0.011839955113828182,0.004524202086031437,0.008567435666918755,-1.5466020107269287,-0.03913133963942528,9.602614402770996
1695668703396608000,1695668703396854173,0.0030666678212583065,-0.0009138461318798363,0.004043766297399998,-1.5431087017059326,-0.0335356667637825,9.612992286682129
1695668703406536192,1695668703406938023,0.012479057535529137,0.0016713524237275124,0.0008481942932121456,-1.5300508737564087,-0.021003615111112595,9.623476028442383
1695668703417092096,1695668703419049610,0.02565869502723217,-0.00037478539161384106,0.005807796958833933,-1.5505273342132568,-0.007056099828332663,9.627685546875
1695668703427949824,1695668703427107700,0.020045941695570946,-0.004099249839782715,0.007971933111548424,-1.5412925481796265,0.009698587469756603,9.633825302124023
1695668703436508928,1695668703437204950,0.01181694958359003,0.0037894085980951786,0.0019402502803131938,-1.5506329536437988,-0.00038829821278341115,9.621041297912598
1695668703447226112,1695668703447294715,0.021789025515317917,0.005461101420223713,0.008787303231656551,-1.546681523323059,0.027471940964460373,9.615410804748535
1695668703456416000,1695668703457383424,0.01507422886788845,-0.002771091880276799,0.0176561139523983,-1.5360066890716553,0.0418478287756443,9.601190567016602
1695668703466490880,1695668703467469478,0.016380703076720238,0.007828950881958008,0.007750007323920727,-1.5311017036437988,0.030184520408511162,9.622551918029785
1695668703476532992,1695668703477552254,0.004842707887291908,0.007755090948194265,0.017479825764894485,-1.533233880996704,0.03521432727575302,9.642502784729004
1695668703486478080,1695668703485624248,0.012654339894652367,0.009611241519451141,0.012820444069802761,-1.553091049194336,0.018414465710520744,9.65851879119873
1695668703496881920,1695668703497720294,0.01430877111852169,0.0050290911458432674,0.01927487552165985,-1.5670603513717651,0.010331195779144764,9.669639587402344
1695668703506567936,1695668703507791390,0.007914049550890923,0.005030560772866011,0.020739508792757988,-1.5636522769927979,-0.0012334617786109447,9.659679412841797
1695668703516521984,1695668703515865453,0.016196858137845993,0.007554362993687391,0.015903275460004807,-1.5359015464782715,-0.018472589552402496,9.662790298461914
1695668703526444800,1695668703525957352,0.003915367182344198,0.011860228143632412,0.013259368017315865,-1.506485104560852,-0.01297804806381464,9.679183006286621
1695668703536454912,1695668703538090216,0.013392925262451172,0.014236665330827236,0.014688627794384956,-1.5077900886535645,-0.035121120512485504,9.720964431762695
1695668703549402112,1695668703550199126,0.007110255304723978,0.0020218747667968273,0.014114707708358765,-1.5131072998046875,-0.0574764683842659,9.737762451171875
1695668703556782848,1695668703556340812,0.011928057298064232,0.008682808838784695,0.012226412072777748,-1.489372730255127,-0.06173904240131378,9.758308410644531
1695668703566468096,1695668703566430853,0.002971089445054531,0.0035065538249909878,0.01687176339328289,-1.4966325759887695,-0.08308183401823044,9.781905174255371
1695668703576504064,1695668703576513083,0.005481864791363478,0.007460788823664188,0.016381120309233665,-1.463187336921692,-0.07299303263425827,9.781394958496094
1695668703586631168,1695668703586600856,0.012891862541437149,0.012786083854734898,0.01412185188382864,-1.4850598573684692,-0.06770972162485123,9.769673347473145
1695668703596582912,1695668703596699092,0.004651740193367004,0.007371013518422842,0.012390602380037308,-1.4829367399215698,-0.07418200373649597,9.763206481933594
1695668703606488832,1695668703606808627,0.006997123826295137,0.014901959337294102,0.014018269255757332,-1.4793182611465454,-0.04367069900035858,9.7557373046875
1695668703616452864,1695668703616891600,0.00893639586865902,0.010384800843894482,0.011323386803269386,-1.5101993083953857,-0.06021163985133171,9.755949974060059
1695668703626445056,1695668703626980716,0.01702442392706871,0.0018995871068909764,0.011529291979968548,-1.4759643077850342,-0.03950760141015053,9.749568939208984
1695668703636481024,1695668703637068851,0.01244710385799408,0.0023234139662235975,0.016479793936014175,-1.4790483713150024,-0.018743857741355896,9.719867706298828
1695668703646853888,1695668703647306630,0.021296318620443344,-0.003106440417468548,0.0061397007666528225,-1.4804693460464478,-0.033547259867191315,9.700329780578613
1695668703656632064,1695668703657404683,0.02322317846119404,0.0009823916479945183,0.010783067904412746,-1.477211356163025,-0.0207505039870739,9.661624908447266
1695668703666524928,1695668703667490731,0.009755857288837433,0.0024718695785850286,0.005282856058329344,-1.5222606658935547,-0.031651873141527176,9.648756980895996
1695668703676527872,1695668703677569328,0.004560831468552351,-0.00151026900857687,0.004380598198622465,-1.4865217208862305,0.0005459316307678819,9.635697364807129
1695668703686588928,1695668703687635815,0.00847606547176838,0.0008740263292565942,0.009353500790894032,-1.503184199333191,0.0003246463602408767,9.626762390136719
1695668703696516864,1695668703697719497,0.010461746715009212,0.008000794798135757,0.003325546393170953,-1.5170153379440308,0.009370927698910236,9.618444442749023
1695668703706430976,1695668703705787870,0.012378321029245853,0.011848865076899529,0.014198075979948044,-1.5140275955200195,0.034902140498161316,9.620296478271484
1695668703716485888,1695668703715868634,0.013109337538480759,0.01629924215376377,0.0017640681471675634,-1.5596038103103638,0.03982033580541611,9.628761291503906
1695668703727472896,1695668703727971057,0.017102854326367378,0.00554746063426137,0.005850533954799175,-1.562718152999878,0.03818931430578232,9.658156394958496
1695668703737826048,1695668703738037246,0.0061912802048027515,0.005747539922595024,0.012256762944161892,-1.5384737253189087,0.06615109741687775,9.69272518157959
1695668703746448896,1695668703746097175,0.007780906744301319,-0.0018624592339619994,0.013560152612626553,-1.5243502855300903,0.056315936148166656,9.735493659973145
1695668703756438016,1695668703756180522,0.010394294746220112,-0.0016144753899425268,0.015172368846833706,-1.4845327138900757,0.08390063047409058,9.754192352294922
1695668703766514944,1695668703766254113,0.008248751051723957,0.004982106853276491,0.009449763223528862,-1.4890503883361816,0.05034014582633972,9.757745742797852
1695668703777337088,1695668703778342554,0.007020500022917986,0.00965133123099804,0.01281352061778307,-1.4719369411468506,0.04589258134365082,9.752888679504395
1695668703786531840,1695668703786407508,0.003977211657911539,0.014873338863253593,0.009640950709581375,-1.4890257120132446,0.01606478914618492,9.73788833618164
1695668703796505088,1695668703796488825,0.005146158393472433,-0.005122285336256027,0.015760568901896477,-1.474953293800354,0.011266901157796383,9.730085372924805
1695668703806544896,1695668703806573298,0.0004003103531431407,0.005154275801032782,0.008699597790837288,-1.4579232931137085,0.012721017003059387,9.732667922973633
1695668703816574208,1695668703816649916,0.016317259520292282,-0.002061564242467284,0.013958092778921127,-1.4905036687850952,0.018279602751135826,9.728034019470215
1695668703826752000,1695668703826727050,0.004167640581727028,0.005426202435046434,0.015468080528080463,-1.4835463762283325,0.020967721939086914,9.731033325195312
1695668703836823040,1695668703836807255,0.007692329119890928,0.0012422448489814997,0.014330488629639149,-1.5027247667312622,0.0360511876642704,9.734820365905762
1695668703846654976,1695668703846885407,0.01112706121057272,-0.003873576642945409,0.01250881515443325,-1.5024045705795288,0.053148604929447174,9.719603538513184
1695668703857356032,1695668703856967462,0.014557961374521255,-0.008858620189130306,0.013757986947894096,-1.5049511194229126,0.08099368214607239,9.708166122436523
1695668703866551040,1695668703867057822,0.009648511186242104,-0.0027319861110299826,0.00010971316805807874,-1.514438271522522,0.07076530903577805,9.718847274780273
1695668703876979200,1695668703877159480,0.006356669124215841,0.0002267677045892924,0.014660925604403019,-1.526760220527649,0.07685810327529907,9.710904121398926
1695668703886583040,1695668703887234896,-0.01023657713085413,-0.0013041006168350577,0.015869032591581345,-1.555436134338379,0.06106337532401085,9.722855567932129
1695668703896452864,1695668703897315275,0.0004986583953723311,-0.007322159130126238,0.021405473351478577,-1.5497227907180786,0.065524622797966,9.732861518859863
1695668703906460928,1695668703907448765,0.007465686183422804,-0.0083672646433115,0.018502242863178253,-1.5503902435302734,0.08005921542644501,9.720702171325684
1695668703916594944,1695668703917522917,0.0105037996545434,-0.0026924661360681057,0.01268251333385706,-1.5519087314605713,0.06944680213928223,9.714860916137695
1695668703927053824,1695668703927790561,0.009238943457603455,0.004774301312863827,0.016812076792120934,-1.547484040260315,0.07342223823070526,9.70169448852539
1695668703936569856,1695668703937881227,0.014203089289367199,0.00048707175301387906,0.008281988091766834,-1.5404579639434814,0.0855146050453186,9.699908256530762
1695668703946481920,1695668703945960350,0.0003826385654974729,-0.002469396684318781,0.01749986782670021,-1.5630906820297241,0.08102479577064514,9.707953453063965
1695668703956478976,1695668703956065010,0.007843641564249992,-0.0023187564220279455,0.017831671983003616,-1.552687406539917,0.09224646538496017,9.68754768371582
1695668703968374016,1695668703970172765,0.00038158189272508025,-0.007558615878224373,0.021396713331341743,-1.5310059785842896,0.09182743728160858,9.640951156616211
1695668703980413952,1695668703984296418,0.006738726515322924,0.0027881921268999577,0.012069937773048878,-1.5308109521865845,0.1071162298321724,9.602188110351562
1695668703986519040,1695668703986309376,0.008119083940982819,0.00164994306396693,0.016505049541592598,-1.5615861415863037,0.08183648437261581,9.561047554016113
1695668703996493056,1695668703998406856,-0.0012845040764659643,0.006418696139007807,0.00892755575478077,-1.5867516994476318,0.0822426974773407,9.56527042388916
1695668704009524224,1695668704010495808,-0.0023553415667265654,0.010987699963152409,0.006589390337467194,-1.5893975496292114,0.07765858620405197,9.56593132019043
1695668704017755136,1695668704018695135,-0.016148393973708153,0.0067471591755747795,0.011735434643924236,-1.617666482925415,0.07508331537246704,9.567804336547852
1695668704026514176,1695668704026772478,-0.0001979178050532937,0.009432154707610607,0.02011832781136036,-1.6035184860229492,0.07453310489654541,9.582572937011719
1695668704036501760,1695668704036862552,-0.0006861904403194785,0.01224894542247057,0.01910727098584175,-1.6030337810516357,0.06852778047323227,9.576017379760742
1695668704046530048,1695668704046944295,-0.0016726573230698705,0.01536314282566309,0.008749185130000114,-1.599103569984436,0.04872669652104378,9.59919548034668
1695668704056819968,1695668704057164839,-0.017799673601984978,0.023364078253507614,0.01699223183095455,-1.5646860599517822,0.0571887344121933,9.57445240020752
1695668704066638848,1695668704067238657,-0.01447193045169115,0.011576773598790169,0.019606448709964752,-1.5664037466049194,0.030157258734107018,9.581608772277832
1695668704076540928,1695668704077322086,-0.010865096002817154,0.019595948979258537,0.012126060202717781,-1.512852430343628,0.030992960557341576,9.581985473632812
1695668704086872064,1695668704087397662,-0.017134731635451317,0.012392307631671429,0.01993071660399437,-1.506030559539795,-0.0019267394673079252,9.58949089050293
1695668704097325056,1695668704097479691,-0.026597265154123306,0.030436480417847633,0.017719026654958725,-1.48692786693573,-0.023520397022366524,9.665921211242676
1695668704106884864,1695668704108118439,-0.028063109144568443,0.013902831822633743,0.014829032123088837,-1.4783296585083008,-0.017146578058600426,9.710102081298828
1695668704116583168,1695668704116179357,-0.02506501041352749,0.023882828652858734,0.00933732558041811,-1.5053821802139282,-0.056925345212221146,9.799627304077148
1695668704126516224,1695668704126265319,-0.025643225759267807,0.02441290393471718,0.010255287401378155,-1.4916915893554688,-0.05022623762488365,9.826031684875488
1695668704136697088,1695668704136354794,-0.0201383326202631,0.015884749591350555,0.010290865786373615,-1.4764961004257202,-0.07302571833133698,9.824799537658691
1695668704148103936,1695668704148454306,-0.020076654851436615,0.018908033147454262,0.01092491578310728,-1.4563705921173096,-0.11408734321594238,9.787314414978027
1695668704157025024,1695668704158534498,-0.022793402895331383,0.01249481551349163,0.007696487475186586,-1.4150515794754028,-0.12922963500022888,9.710075378417969
1695668704166476032,1695668704166601114,-0.027504974976181984,0.010490319691598415,0.0051171910017728806,-1.434055209159851,-0.17940840125083923,9.627699851989746
1695668704176716032,1695668704176680046,-0.023767931386828423,0.013868726789951324,0.00582114839926362,-1.4095767736434937,-0.22721274197101593,9.5371732711792
1695668704187113984,1695668704186773518,-0.029805852100253105,0.02843935415148735,0.007074663415551186,-1.4300295114517212,-0.2989994287490845,9.489249229431152
1695668704197174016,1695668704196845320,-0.03241916373372078,0.011756621301174164,-0.0017270214157178998,-1.457132339477539,-0.3475727140903473,9.46175479888916
1695668704206633216,1695668704211015802,-0.030387641862034798,0.02776302956044674,-0.007352503947913647,-1.4582743644714355,-0.3817800283432007,9.468334197998047
1695668704216572160,1695668704217074979,-0.04512026160955429,0.03608041629195213,-0.012132424861192703,-1.492880940437317,-0.43075430393218994,9.488264083862305
1695668704226656000,1695668704227167336,-0.04274536669254303,0.02628033421933651,-0.010584739036858082,-1.4600517749786377,-0.4517422020435333,9.530011177062988
1695668704236742912,1695668704237252966,-0.04596777632832527,0.025763101875782013,-0.019694166257977486,-1.4582847356796265,-0.44765573740005493,9.597217559814453
1695668704246584064,1695668704247327911,-0.05325818434357643,0.032448913902044296,-0.012734275311231613,-1.4323318004608154,-0.4300895929336548,9.673172950744629
1695668704256644864,1695668704257422932,-0.053639307618141174,0.029954807832837105,-0.017863687127828598,-1.3887569904327393,-0.37483516335487366,9.7523775100708
1695668704266476032,1695668704267529910,-0.04058526083827019,0.027753055095672607,-0.017347868531942368,-1.3634283542633057,-0.32998937368392944,9.834881782531738
1695668704276665088,1695668704277629716,-0.042328841984272,0.03409990295767784,-0.015791669487953186,-1.3250374794006348,-0.2709006369113922,9.925385475158691
1695668704286569216,1695668704285692090,-0.03247441351413727,0.027695558965206146,-0.026876671239733696,-1.3316491842269897,-0.2620043456554413,9.984014511108398
1695668704296709120,1695668704297775367,-0.030419303104281425,0.027994144707918167,-0.014035155065357685,-1.303446650505066,-0.23373113572597504,10.007611274719238
1695668704306551808,1695668704307835684,-0.013701513409614563,0.0243441890925169,-0.01968473382294178,-1.2754096984863281,-0.20177872478961945,9.97807502746582
1695668704316520960,1695668704317896141,-0.01573127880692482,0.028154948726296425,-0.014947975054383278,-1.282576084136963,-0.23853231966495514,9.93380069732666
1695668704326667008,1695668704325943909,-0.004266075789928436,0.02998722717165947,-0.012983768247067928,-1.2897918224334717,-0.2731765806674957,9.854362487792969
1695668704336570112,1695668704336030963,0.005292562767863274,0.0191886518150568,-0.012282457202672958,-1.3056323528289795,-0.28892600536346436,9.78079605102539
1695668704346610944,1695668704348146579,0.0019323976011946797,0.031161684542894363,-0.016443289816379547,-1.3595809936523438,-0.3237196207046509,9.697000503540039
1695668704356525056,1695668704356221181,0.011901633813977242,0.03186127170920372,-0.011024104431271553,-1.3942826986312866,-0.29960355162620544,9.6215238571167
1695668704366755840,1695668704374393134,0.009874771349132061,0.02953873760998249,-0.010347865521907806,-1.398767113685608,-0.3044500946998596,9.551937103271484
1695668704376641024,1695668704376408048,0.00952403899282217,0.03638987988233566,-0.005797585938125849,-1.4234533309936523,-0.26073259115219116,9.488336563110352
1695668704386624000,1695668704386473566,0.012840088456869125,0.03145582601428032,-0.03066371940076351,-1.468489170074463,-0.25292906165122986,9.447784423828125
1695668704396462848,1695668704396535622,0.03395815193653107,0.04157464578747749,-0.010826954618096352,-1.4547213315963745,-0.191999152302742,9.454626083374023
1695668704406585088,1695668704406600642,0.03302616626024246,0.033568382263183594,-0.011525786481797695,-1.450305461883545,-0.1271129697561264,9.490158081054688
1695668704416576000,1695668704418706955,0.03184793144464493,0.03165849670767784,-0.0063858600333333015,-1.4451625347137451,-0.0625695288181305,9.566353797912598
1695668704426647040,1695668704426782026,0.051276739686727524,0.035756707191467285,-0.009730542078614235,-1.4021366834640503,-0.008707508444786072,9.60663890838623
1695668704436739840,1695668704438872003,0.05974830314517021,0.03926563262939453,0.004644604865461588,-1.4292341470718384,0.10020481050014496,9.646769523620605
1695668704446556928,1695668704446939558,0.0691031888127327,0.02860991470515728,0.00675558764487505,-1.4230167865753174,0.20035198330879211,9.677285194396973
1695668704456625920,1695668704457031193,0.0799546092748642,0.022969795390963554,0.01672356203198433,-1.4230033159255981,0.3102765679359436,9.682254791259766
1695668704466646784,1695668704467127371,0.08422382175922394,0.020529689267277718,0.011623070575296879,-1.4564086198806763,0.47097253799438477,9.669734954833984
1695668704477242880,1695668704477208325,0.10134702175855637,0.020927120000123978,0.030009320005774498,-1.4689868688583374,0.6140859127044678,9.617925643920898
1695668704486565120,1695668704487287283,0.12247692048549652,0.042121969163417816,0.04829610511660576,-1.5707969665527344,0.7140382528305054,9.551329612731934
1695668704496506880,1695668704497380021,0.12409579008817673,0.04982870817184448,0.054215509444475174,-1.658823847770691,0.8028853535652161,9.502738952636719
1695668704506515968,1695668704507463736,0.12260660529136658,0.06702703982591629,0.06977465003728867,-1.8108112812042236,0.8910367488861084,9.488768577575684
1695668704516568064,1695668704517545969,0.13646169006824493,0.07385139167308807,0.07332993298768997,-2.0058908462524414,1.0005167722702026,9.511787414550781
1695668704526726912,1695668704527638759,0.13941062986850739,0.08744790405035019,0.0943305641412735,-2.1158447265625,1.1511110067367554,9.516926765441895
1695668704536578816,1695668704535706779,0.1415320783853531,0.10433635115623474,0.1336250752210617,-2.1992135047912598,1.2517309188842773,9.50124740600586
1695668704546587904,1695668704545790877,0.1459406614303589,0.116923488676548,0.14091236889362335,-2.179682970046997,1.313892126083374,9.42027473449707
1695668704556641024,1695668704559909332,0.1617249995470047,0.12837308645248413,0.16755838692188263,-2.0668954849243164,1.3411586284637451,9.26478099822998
1695668704566543104,1695668704566102964,0.16858235001564026,0.13571104407310486,0.19168530404567719,-1.8546737432479858,1.3033983707427979,9.015120506286621
1695668704576605184,1695668704578193482,0.16394005715847015,0.15430277585983276,0.21297629177570343,-1.6038182973861694,1.2573411464691162,8.747050285339355
1695668704588262144,1695668704592315614,0.14620128273963928,0.17642320692539215,0.22056670486927032,-1.3600631952285767,1.107285499572754,8.548999786376953
1695668704599320832,1695668704604391663,0.1311332881450653,0.18444477021694183,0.21000954508781433,-1.1572052240371704,0.9181542992591858,8.502697944641113
1695668704606533120,1695668704606404044,0.10863368213176727,0.19435539841651917,0.21781717240810394,-1.0201383829116821,0.6739857792854309,8.626822471618652
1695668704616532992,1695668704616501583,0.09142186492681503,0.19629591703414917,0.21134792268276215,-0.9215417504310608,0.3847961127758026,8.916729927062988
1695668704626539008,1695668704626584122,0.0810188576579094,0.18123003840446472,0.20040956139564514,-0.7834128141403198,0.09935620427131653,9.259315490722656
1695668704636562176,1695668704636678824,0.07078946381807327,0.18717491626739502,0.18016748130321503,-0.6742932200431824,-0.22019007802009583,9.634400367736816
1695668704647021056,1695668704646760960,0.06986668705940247,0.1872616410255432,0.17934869229793549,-0.6042818427085876,-0.45236074924468994,9.997406005859375
1695668704656829952,1695668704656841753,0.05500078573822975,0.176344633102417,0.15314282476902008,-0.4944186210632324,-0.5459946393966675,10.314393997192383
1695668704666660096,1695668704666936442,0.04465969651937485,0.15536443889141083,0.13725073635578156,-0.4264811873435974,-0.5776939988136292,10.6122407913208
1695668704677709056,1695668704679024392,0.032165803015232086,0.15341617166996002,0.12028716504573822,-0.3179251551628113,-0.5136366486549377,10.88597297668457
1695668704686528000,1695668704687100583,0.02037394978106022,0.1391228884458542,0.09335672855377197,-0.23178578913211823,-0.39594951272010803,11.12397575378418
1695668704696704000,1695668704697399747,0.02653001807630062,0.11641164124011993,0.07549456506967545,-0.1828145682811737,-0.28825509548187256,11.28050422668457
1695668704706549760,1695668704707479000,0.053490281105041504,0.1112169548869133,0.04560307785868645,-0.15352797508239746,-0.1511804461479187,11.303189277648926
1695668704716523776,1695668704715551807,0.06279481202363968,0.08982935547828674,0.0415593646466732,-0.18621520698070526,-0.03449833020567894,11.187214851379395
1695668704726638080,1695668704727656295,0.06825044751167297,0.09001125395298004,0.02657669223845005,-0.23278926312923431,0.046141307801008224,10.91874885559082
1695668704736560128,1695668704737738440,0.07724694907665253,0.061517614871263504,0.008965475484728813,-0.3106634020805359,0.10360061377286911,10.533695220947266
1695668704746618880,1695668704747923711,0.06965615600347519,0.04928024858236313,-0.005198939703404903,-0.4436537027359009,0.1741240918636322,10.150123596191406
1695668704756637184,1695668704758018098,0.0544135682284832,0.04709973186254501,-0.023588916286826134,-0.5561214685440063,0.2555251121520996,9.78089714050293
1695668704766550016,1695668704768111162,0.05042729899287224,0.038263674825429916,-0.030686691403388977,-0.676917314529419,0.3230731785297394,9.492105484008789
1695668704776559104,1695668704776183876,0.038473304361104965,0.04373442381620407,-0.03228835389018059,-0.8097070455551147,0.3584021031856537,9.254146575927734
1695668704788408064,1695668704789284306,0.03389063477516174,0.04051102325320244,-0.04040353372693062,-0.9181230068206787,0.44401511549949646,9.092767715454102
1695668704796756992,1695668704797357268,0.017977174371480942,0.055889006704092026,-0.04850001633167267,-0.9937893748283386,0.4879097044467926,8.963480949401855
1695668704806687232,1695668704807454759,0.00821860320866108,0.04904433339834213,-0.03878355398774147,-1.0154240131378174,0.5701891779899597,8.868400573730469
1695668704816553984,1695668704815525041,-0.007619551848620176,0.06107894331216812,-0.051124799996614456,-1.0453271865844727,0.6316037774085999,8.811647415161133
1695668704828346112,1695668704831670147,-0.01747504621744156,0.06892206519842148,-0.05512978509068489,-1.0164743661880493,0.7064030766487122,8.876635551452637
1695668704836747776,1695668704837936874,-0.04091767594218254,0.07215680181980133,-0.0545857734978199,-1.0315251350402832,0.7412367463111877,9.026864051818848
1695668704846759168,1695668704848033628,-0.05223991349339485,0.07187763601541519,-0.05021175742149353,-0.995477020740509,0.7701197266578674,9.270339965820312
1695668704856620032,1695668704856127981,-0.06466571986675262,0.06905674189329147,-0.0624457523226738,-0.9712057113647461,0.7671598196029663,9.525797843933105
1695668704867724032,1695668704868231992,-0.051711246371269226,0.05974123999476433,-0.05923932418227196,-0.8762481808662415,0.7619373798370361,9.754758834838867
1695668704877254912,1695668704878504930,-0.0554511696100235,0.05598513409495354,-0.04849900305271149,-0.7802995443344116,0.8013426065444946,9.946937561035156
1695668704886579968,1695668704886582804,-0.03585417941212654,0.05712922289967537,-0.05242745578289032,-0.715080201625824,0.7714070081710815,10.02436351776123
1695668704896601856,1695668704896672939,-0.037858594208955765,0.05914981663227081,-0.06528738886117935,-0.6435059905052185,0.7473223209381104,10.092488288879395
1695668704906557184,1695668704906770094,-0.029491333290934563,0.04458606243133545,-0.06131131201982498,-0.5971860289573669,0.6938840746879578,10.090578079223633
1695668704921987072,1695668704922891187,-0.02255314588546753,0.03752065822482109,-0.07474003732204437,-0.5670486688613892,0.634331226348877,10.142109870910645
1695668704926639104,1695668704926929789,-0.03307966887950897,0.018901601433753967,-0.08682171255350113,-0.5686584115028381,0.5974187850952148,10.211346626281738
1695668704941620224,1695668704945104375,-0.03131639212369919,-0.0017000666121020913,-0.09584210813045502,-0.6147713661193848,0.4706370532512665,10.325573921203613
1695668704946765824,1695668704947123030,-0.030284114181995392,-0.0004043529334012419,-0.10961241275072098,-0.668656587600708,0.3744473457336426,10.425508499145508
1695668704957888000,1695668704957206441,-0.0242115817964077,-0.030668066814541817,-0.12302494049072266,-0.7120298743247986,0.32399436831474304,10.50561809539795
1695668704966605056,1695668704967271325,-0.01710917055606842,-0.04607704281806946,-0.13870389759540558,-0.8241497278213501,0.33209532499313354,10.612895011901855
1695668704976578048,1695668704977360677,-0.012081045657396317,-0.053005997091531754,-0.14404234290122986,-0.9415135979652405,0.40077269077301025,10.700913429260254
1695668704986649088,1695668704989448455,-0.01888268068432808,-0.06675101071596146,-0.14158819615840912,-1.0801806449890137,0.38630738854408264,10.800199508666992
1695668704996696832,1695668704999547852,-0.0248117595911026,-0.08662038296461105,-0.17157256603240967,-1.204223871231079,0.38602954149246216,10.897012710571289
1695668705006681088,1695668705011646319,-0.009453940205276012,-0.1047365590929985,-0.16984984278678894,-1.354758381843567,0.4473195970058441,10.964621543884277
1695668705016678144,1695668705015681025,0.010572254657745361,-0.11102748662233353,-0.17202258110046387,-1.5029923915863037,0.5025809407234192,10.977299690246582
1695668705026737920,1695668705027784156,0.026813684031367302,-0.12643340229988098,-0.1628504991531372,-1.6295145750045776,0.568730890750885,10.86452579498291
1695668705038052096,1695668705039892417,0.044660784304142,-0.12740983068943024,-0.1724705696105957,-1.7575973272323608,0.6318533420562744,10.683332443237305
1695668705046736896,1695668705045950560,0.036204803735017776,-0.13655899465084076,-0.17069798707962036,-1.9497392177581787,0.6958445310592651,10.486454010009766
1695668705057024000,1695668705058065994,0.021178480237722397,-0.14714311063289642,-0.17338219285011292,-2.1776247024536133,0.762546181678772,10.386849403381348
1695668705066678016,1695668705068153612,-0.0003589985135477036,-0.15636005997657776,-0.15927231311798096,-2.437201738357544,0.8110385537147522,10.404831886291504
1695668705076749056,1695668705076224228,-0.00765078654512763,-0.1435210108757019,-0.14955638349056244,-2.6823413372039795,0.824836015701294,10.514890670776367
1695668705086611968,1695668705092375991,-0.029435019940137863,-0.13993117213249207,-0.1363372653722763,-2.9429614543914795,0.7707580924034119,10.655150413513184
1695668705096734976,1695668705098428796,-0.030772050842642784,-0.13990476727485657,-0.11907543987035751,-3.1059253215789795,0.6815567016601562,10.729999542236328
1695668705106742016,1695668705106500348,-0.0221630297601223,-0.12997551262378693,-0.11279446631669998,-3.1907010078430176,0.5380573272705078,10.6796293258667
1695668705116712960,1695668705116584946,-0.02364124357700348,-0.11668851226568222,-0.09627659618854523,-3.1430113315582275,0.3489246368408203,10.456815719604492
1695668705126650112,1695668705126674754,-0.02468237653374672,-0.10661734640598297,-0.0903114601969719,-2.9862115383148193,0.11143521219491959,10.087648391723633
1695668705136687872,1695668705136761748,-0.03243836760520935,-0.09694286435842514,-0.09224455058574677,-2.778599739074707,-0.1293579638004303,9.663154602050781
1695668705146599936,1695668705146851799,-0.04171125218272209,-0.07346850633621216,-0.09540261328220367,-2.584876298904419,-0.36378973722457886,9.25404167175293
1695668705156588032,1695668705156933866,-0.047703709453344345,-0.055627450346946716,-0.1013898029923439,-2.453200340270996,-0.551006019115448,8.903690338134766
1695668705166652928,1695668705167029503,-0.05801697447896004,-0.03625211492180824,-0.1125074028968811,-2.316507577896118,-0.7028448581695557,8.592392921447754
1695668705176626944,1695668705177120336,-0.06860559433698654,-0.02624710649251938,-0.11694102734327316,-2.2374327182769775,-0.775748074054718,8.319982528686523
1695668705186643968,1695668705187211292,-0.059324584901332855,-0.015256290324032307,-0.12523551285266876,-2.166069746017456,-0.863686740398407,8.047087669372559
1695668705196770816,1695668705197385764,-0.05754513666033745,-0.005904577672481537,-0.1321037858724594,-2.0957555770874023,-0.9196028113365173,7.808473587036133
1695668705206708992,1695668705207468782,-0.06170863285660744,0.0199540164321661,-0.13346043229103088,-2.0921432971954346,-1.000657081604004,7.656861305236816
1695668705216676864,1695668705217560205,-0.07768437266349792,0.0237641092389822,-0.1474246382713318,-2.06308913230896,-1.0570602416992188,7.63758659362793
1695668705226609920,1695668705227657167,-0.08617736399173737,0.03198739513754845,-0.15658895671367645,-2.1244754791259766,-1.0584135055541992,7.801015853881836
1695668705238404864,1695668705241765345,-0.10439032316207886,0.034289803355932236,-0.1492651402950287,-2.241513729095459,-0.9845056533813477,8.152874946594238
1695668705246658048,1695668705247815938,-0.1131204292178154,0.048132073134183884,-0.15756264328956604,-2.316974401473999,-0.823204755783081,8.623384475708008
1695668705256717824,1695668705257910075,-0.11088088899850845,0.06603232026100159,-0.1539902538061142,-2.3642518520355225,-0.6196721196174622,9.100615501403809
1695668705266680064,1695668705265981813,-0.09938433021306992,0.08484537899494171,-0.15429231524467468,-2.416579484939575,-0.3903738856315613,9.540032386779785
1695668705276691968,1695668705276067742,-0.09123530238866806,0.08992961049079895,-0.14325709640979767,-2.3858442306518555,-0.18271887302398682,9.866735458374023
1695668705286711808,1695668705286145103,-0.08682472258806229,0.10300097614526749,-0.12955594062805176,-2.304335594177246,-0.02435283735394478,10.032402038574219
1695668705296647936,1695668705296220632,-0.07210427522659302,0.12785203754901886,-0.13227257132530212,-2.167175769805908,0.1294986605644226,10.076541900634766
1695668705306612992,1695668705306315998,-0.05023636668920517,0.13170279562473297,-0.10287923365831375,-1.979733943939209,0.2236655205488205,9.996535301208496
1695668705316598784,1695668705316408058,-0.03632944077253342,0.1453762799501419,-0.10108286142349243,-1.777885913848877,0.27754753828048706,9.780057907104492
1695668705326763008,1695668705326490190,-0.02784986048936844,0.14715656638145447,-0.09292825311422348,-1.6033891439437866,0.3001062273979187,9.465150833129883
1695668705336711936,1695668705336570992,-0.03293420746922493,0.16323217749595642,-0.09646976739168167,-1.5254597663879395,0.2515692114830017,9.133813858032227
1695668705346697984,1695668705350767570,-0.02428666688501835,0.1706884801387787,-0.0685199499130249,-1.485308289527893,0.19031311571598053,8.85510540008545
1695668705356615168,1695668705358838165,-0.03137221932411194,0.17790450155735016,-0.06992919743061066,-1.4620189666748047,0.14542873203754425,8.607749938964844
1695668705366810112,1695668705366912168,-0.046287164092063904,0.1847001612186432,-0.07302913814783096,-1.4962003231048584,0.08506909757852554,8.443296432495117
1695668705376701184,1695668705376996386,-0.04916573315858841,0.1953662782907486,-0.04439222067594528,-1.5363609790802002,0.05197420343756676,8.353165626525879
1695668705386673920,1695668705387082291,-0.04993323236703873,0.20932887494564056,-0.049878399819135666,-1.6379380226135254,-0.020331207662820816,8.302966117858887
1695668705396723968,1695668705397152606,-0.0540936179459095,0.21975034475326538,-0.04143020138144493,-1.6980156898498535,-0.10843534022569656,8.295195579528809
1695668705406619904,1695668705407275053,-0.06204158067703247,0.22352585196495056,-0.03094727359712124,-1.7498083114624023,-0.18219482898712158,8.313167572021484
1695668705416697088,1695668705417363478,-0.0704914927482605,0.22886325418949127,-0.028595909476280212,-1.8303213119506836,-0.23653104901313782,8.363218307495117
1695668705426750976,1695668705427479041,-0.0658138170838356,0.24235835671424866,-0.021580569446086884,-1.8211874961853027,-0.28020718693733215,8.473926544189453
1695668705436676096,1695668705439592301,-0.08217959105968475,0.25892356038093567,-0.022680800408124924,-1.845618486404419,-0.3221760392189026,8.673880577087402
1695668705446693888,1695668705447661911,-0.0780961737036705,0.26166191697120667,-0.023340582847595215,-1.8076800107955933,-0.38367071747779846,8.939559936523438
1695668705456686080,1695668705455737500,-0.07433690875768661,0.26834797859191895,-0.01592959277331829,-1.7144802808761597,-0.4481012523174286,9.191585540771484
1695668705466701056,1695668705465825303,-0.06668916344642639,0.269214004278183,-0.02574015222489834,-1.5637483596801758,-0.4792836606502533,9.438222885131836
1695668705476770048,1695668705478176759,-0.05421116575598717,0.26801419258117676,-0.01924407295882702,-1.3675646781921387,-0.4902140200138092,9.653290748596191
1695668705486764032,1695668705490286702,-0.045968279242515564,0.25821948051452637,-0.02505580149590969,-1.2743638753890991,-0.48363903164863586,9.858572959899902
1695668705496678144,1695668705500384555,-0.03149109706282616,0.25078684091567993,-0.017563296481966972,-1.1454695463180542,-0.4544726014137268,10.079874038696289
1695668705506722816,1695668705506442012,-0.021921105682849884,0.24067552387714386,-0.024063823744654655,-1.0640019178390503,-0.40339478850364685,10.319466590881348
1695668705516839936,1695668705516532500,-0.016528796404600143,0.20503799617290497,-0.03303098678588867,-0.9965560436248779,-0.4312378764152527,10.579512596130371
1695668705526663936,1695668705526616665,-0.013288682326674461,0.1778905689716339,-0.028977422043681145,-0.8896071314811707,-0.4462195038795471,10.818385124206543
1695668705536695040,1695668705536707015,0.007400592789053917,0.14209263026714325,-0.030186809599399567,-0.8123381733894348,-0.4617323577404022,11.058043479919434
1695668705546706944,1695668705546802079,0.03406386077404022,0.12136466056108475,-0.038821954280138016,-0.7689409255981445,-0.49727094173431396,11.251973152160645
1695668705556852224,1695668705556882292,0.04234055429697037,0.0888575091958046,-0.04707305133342743,-0.7132043838500977,-0.4661646783351898,11.347244262695312
1695668705566744064,1695668705566968307,0.05926287919282913,0.06643189489841461,-0.04417920485138893,-0.726630687713623,-0.4848129153251648,11.3899507522583
1695668705576738048,1695668705577050695,0.0627211183309555,0.023526811972260475,-0.03555796295404434,-0.6936079263687134,-0.5014386177062988,11.386983871459961
1695668705586711808,1695668705587147245,0.059621572494506836,-0.0026698147412389517,-0.05026260390877724,-0.6729080080986023,-0.5484999418258667,11.34417724609375
1695668705596726016,1695668705597228546,0.05640961229801178,-0.041260045021772385,-0.05251309275627136,-0.6926901340484619,-0.5447375774383545,11.320884704589844
1695668705606790912,1695668705609339561,0.04984017834067345,-0.07041389495134354,-0.03953725844621658,-0.74994957447052,-0.49532145261764526,11.287518501281738
1695668705616787968,1695668705617409221,0.042601536959409714,-0.09278540313243866,-0.042546313256025314,-0.8619431257247925,-0.45593324303627014,11.285733222961426
1695668705626894848,1695668705627501154,0.026524323970079422,-0.1195700392127037,-0.03346923366189003,-1.0131558179855347,-0.3819868862628937,11.273965835571289
1695668705636707072,1695668705637588939,0.02199510484933853,-0.1505969613790512,-0.038252197206020355,-1.225242257118225,-0.2555496394634247,11.262675285339355
1695668705646685952,1695668705649692809,0.022662490606307983,-0.16867774724960327,-0.021556293591856956,-1.4423785209655762,-0.12400570511817932,11.189970970153809
1695668705656771072,1695668705657763850,0.014825640246272087,-0.1914067417383194,-0.00503960158675909,-1.5594035387039185,0.020718548446893692,11.085113525390625
1695668705666789888,1695668705667863808,0.025109419599175453,-0.2066422998905182,0.002357000485062599,-1.7583810091018677,0.13949783146381378,10.951407432556152
1695668705676666880,1695668705675944046,0.015202744863927364,-0.21761378645896912,0.019839486107230186,-1.934889554977417,0.24844175577163696,10.811433792114258
1695668705687073024,1695668705688055715,0.008322695270180702,-0.2252817451953888,0.02600249834358692,-2.2343826293945312,0.3723922371864319,10.715764045715332
1695668705697686784,1695668705698140098,-0.0018264118116348982,-0.23098300397396088,0.029547356069087982,-2.6027207374572754,0.5265278220176697,10.758139610290527
1695668705706636032,1695668705706217552,-0.011530413292348385,-0.2384798526763916,0.053763411939144135,-3.02113676071167,0.6991065740585327,10.999341011047363
1695668705716902144,1695668705716300124,-0.031373314559459686,-0.22972293198108673,0.06580425798892975,-3.4582905769348145,0.7945363521575928,11.379502296447754
1695668705726686976,1695668705728406844,-0.01615769974887371,-0.22768180072307587,0.07318247854709625,-3.8599963188171387,0.8083166480064392,11.787779808044434
1695668705736669184,1695668705736471629,0.003712679026648402,-0.23313266038894653,0.07607900351285934,-4.138971328735352,0.7228354215621948,12.084599494934082
1695668705746949888,1695668705746565012,0.03342239931225777,-0.21981269121170044,0.09193441271781921,-4.291676044464111,0.5886049866676331,12.116555213928223
1695668705756696064,1695668705758671180,0.08214127272367477,-0.2053583562374115,0.11134139448404312,-4.2079620361328125,0.4216899573802948,11.788849830627441
1695668705766668032,1695668705766748455,0.12502120435237885,-0.18400298058986664,0.12903249263763428,-3.94427490234375,0.2154364287853241,11.068666458129883
1695668705776790016,1695668705780881999,0.15278923511505127,-0.17151330411434174,0.14857736229896545,-3.5360116958618164,0.06248672679066658,10.109926223754883
1695668705787208192,1695668705789182171,0.15141794085502625,-0.14835844933986664,0.13617174327373505,-3.120318651199341,-0.0012584547512233257,9.09153938293457
1695668705797671936,1695668705797240940,0.12440174072980881,-0.12461704015731812,0.1497349888086319,-2.8150017261505127,0.035761069506406784,8.224523544311523
1695668705806744064,1695668705807314791,0.082895927131176,-0.09283677488565445,0.14719560742378235,-2.6212894916534424,0.09641667455434799,7.620433807373047
1695668705816679936,1695668705817398194,0.040907055139541626,-0.07057172805070877,0.15311625599861145,-2.5719494819641113,0.232158362865448,7.322483539581299
1695668705826733056,1695668705827496552,0.022356577217578888,-0.05376614257693291,0.1531365066766739,-2.595559597015381,0.345166951417923,7.237289905548096
1695668705836782080,1695668705837570682,0.011649632826447487,-0.05458402261137962,0.15006563067436218,-2.5990047454833984,0.43036091327667236,7.240691661834717
1695668705846998016,1695668705847652119,0.01744767837226391,-0.03756541386246681,0.1544714868068695,-2.565293788909912,0.5431527495384216,7.261477947235107
1695668705856691968,1695668705857740330,0.04025730490684509,-0.01280724722892046,0.14016374945640564,-2.469897508621216,0.685729444026947,7.262003421783447
1695668705866700032,1695668705867826760,0.033946581184864044,0.009629995562136173,0.14123542606830597,-2.3427438735961914,0.8112238049507141,7.280762672424316
1695668705876694016,1695668705875902674,0.033126067370176315,0.007487231865525246,0.13442783057689667,-2.2152483463287354,0.973670482635498,7.457330226898193
1695668705887963904,1695668705888002972,0.020220305770635605,0.03549268841743469,0.11627957969903946,-2.1496355533599854,1.0522890090942383,7.80633020401001
1695668705896730880,1695668705898085517,0.01926068216562271,0.0598972849547863,0.10012005269527435,-2.1285130977630615,1.0535155534744263,8.405381202697754
1695668705906710016,1695668705908176361,0.03156907483935356,0.0651995837688446,0.09891544282436371,-2.149224042892456,0.9557874202728271,9.087315559387207
1695668705916777984,1695668705918273337,0.06560936570167542,0.07669765502214432,0.08804401755332947,-2.176131248474121,0.718022346496582,9.699153900146484
1695668705927339008,1695668705928365980,0.11001788824796677,0.07591427117586136,0.08865000307559967,-2.078322410583496,0.4370555877685547,10.032594680786133
1695668705936752128,1695668705936437354,0.15612415969371796,0.08013598620891571,0.0857478603720665,-1.9407304525375366,0.10557746142148972,10.005684852600098
1695668705946667008,1695668705946524978,0.18385836482048035,0.08762349933385849,0.07226429134607315,-1.6863842010498047,-0.2564676105976105,9.658220291137695
1695668705957271040,1695668705958633389,0.17263062298297882,0.07733027637004852,0.06815711408853531,-1.4227294921875,-0.4926220178604126,9.145298957824707
1695668705978764032,1695668705991116526,0.16221460700035095,0.07921677827835083,0.06035556271672249,-1.1890426874160767,-0.5955222249031067,8.704239845275879
1695668705979753984,1695668705991116526,0.128276526927948,0.07157819718122482,0.04367009550333023,-1.046936273574829,-0.513651430606842,8.434048652648926
1695668705990576128,1695668706017378282,0.0991683080792427,0.0721854567527771,0.03244808316230774,-1.03132164478302,-0.32161930203437805,8.363225936889648
1695668706011399936,1695668706017378282,0.0948919728398323,0.07498760521411896,0.009024268947541714,-1.0948814153671265,-0.13619807362556458,8.435474395751953
1695668706012468992,1695668706017378282,0.09598065912723541,0.06870988011360168,0.0011992225190624595,-1.1292638778686523,0.07720188051462173,8.483752250671387
1695668706016892928,1695668706019395329,0.10262957215309143,0.05871338024735451,-0.0028584403917193413,-1.20999014377594,0.25037217140197754,8.519631385803223
1695668706026797056,1695668706027476302,0.10671691596508026,0.060690250247716904,-0.008176912553608418,-1.185422658920288,0.4454732835292816,8.442220687866211
1695668706036755968,1695668706041603755,0.12037310749292374,0.04595452547073364,-0.013376767747104168,-1.1896480321884155,0.6016430258750916,8.392837524414062
1695668706046819072,1695668706047648558,0.10997755825519562,0.06127726286649704,-0.01827169395983219,-1.1939704418182373,0.744197428226471,8.386130332946777
1695668706056760064,1695668706065814789,0.10442503541707993,0.05593430995941162,-0.030052239075303078,-1.2237145900726318,0.8681442737579346,8.490367889404297
1695668706066937088,1695668706067833140,0.09515445679426193,0.05638615041971207,-0.04164423793554306,-1.280349612236023,0.9541634321212769,8.663444519042969
1695668706078808064,1695668706079942344,0.08658363670110703,0.06091316044330597,-0.033266860991716385,-1.2734951972961426,0.9943534731864929,8.853137969970703
1695668706087117824,1695668706088007875,0.08809312433004379,0.060529764741659164,-0.030294269323349,-1.2407317161560059,1.0079222917556763,9.009142875671387
1695668706096978944,1695668706102149048,0.09007887542247772,0.06931891292333603,-0.02364087849855423,-1.181034803390503,1.0157470703125,9.078775405883789
1695668706107601920,1695668706108206704,0.09173797070980072,0.08058931678533554,-0.015940478071570396,-1.126949429512024,1.024366021156311,9.110554695129395
1695668706116736768,1695668706116269380,0.07374788075685501,0.08247774839401245,-0.011781004257500172,-1.1148147583007812,0.9994648694992065,9.1434965133667
1695668706126732032,1695668706126360296,0.06011241301894188,0.08140722662210464,-0.0031713549979031086,-1.064366340637207,0.9718499183654785,9.211165428161621
1695668706136809984,1695668706136427771,0.0327850766479969,0.07342472672462463,-0.013889591209590435,-1.0859712362289429,0.9148128032684326,9.350940704345703
1695668706146889984,1695668706146519878,0.012137954123318195,0.07348223030567169,-0.005783237516880035,-1.096239686012268,0.8833587169647217,9.539752006530762
1695668706156993024,1695668706157017675,0.004125172272324562,0.08685389906167984,0.005205269902944565,-1.2013335227966309,0.8925979733467102,9.74237060546875
1695668706166884864,1695668706169126055,-0.00017866899725049734,0.08339393138885498,0.012380135245621204,-1.3022092580795288,0.9133046269416809,9.922513961791992
1695668706177399040,1695668706177181669,-0.0024639435578137636,0.07809396088123322,0.013094116933643818,-1.4247279167175293,0.9125916957855225,10.034274101257324
1695668706188774144,1695668706189284169,-0.0030969486106187105,0.07682251930236816,0.01051812618970871,-1.516933798789978,0.9410769939422607,10.115434646606445
1695668706196822016,1695668706197357081,-0.016004694625735283,0.07644253969192505,0.027069134637713432,-1.5869051218032837,0.9545785188674927,10.138775825500488
1695668706206784000,1695668706207478870,-0.02353186346590519,0.07144943624734879,0.020809955894947052,-1.5886867046356201,0.9830741882324219,10.134885787963867
1695668706216825856,1695668706219584129,-0.025040507316589355,0.07007209211587906,0.03149106353521347,-1.5395865440368652,1.0309422016143799,10.171765327453613
1695668706226674944,1695668706229672662,-0.01950964145362377,0.08330574631690979,0.030574817210435867,-1.5403144359588623,1.1142354011535645,10.238780975341797
1695668706236855040,1695668706241786534,-0.01601896435022354,0.08143433183431625,0.022704221308231354,-1.6027277708053589,1.153233528137207,10.382159233093262
1695668706246786048,1695668706247837735,-0.011083662509918213,0.07683750987052917,0.025562861934304237,-1.7029423713684082,1.1636770963668823,10.634393692016602
1695668706256719104,1695668706255909569,-0.009740862995386124,0.06607148796319962,0.017978578805923462,-1.832345724105835,1.0974057912826538,10.936147689819336
1695668706266870016,1695668706265997750,-0.0021908057387918234,0.06671687960624695,0.023371998220682144,-1.95108163356781,1.0453110933303833,11.291070938110352
1695668706276758784,1695668706276076991,0.018792802467942238,0.06144057959318161,0.03449263051152229,-2.0177345275878906,0.9913098812103271,11.603132247924805
1695668706286753792,1695668706288177713,0.03954339399933815,0.042404111474752426,0.027776114642620087,-2.020291328430176,0.9404091238975525,11.808987617492676
1695668706296731904,1695668706296239658,0.04923047870397568,0.02150743640959263,0.04630022495985031,-1.9403693675994873,0.8911933898925781,11.910102844238281
1695668706306735872,1695668706306319931,0.04884015768766403,-0.0062639438547194,0.05200636759400368,-1.8067277669906616,0.8149613738059998,11.900778770446777
1695668706316720896,1695668706316412743,0.03114943765103817,-0.03042300045490265,0.04637332633137703,-1.7125500440597534,0.7630003690719604,11.986776351928711
1695668706326786048,1695668706326498446,-0.014651677571237087,-0.06008089706301689,0.05436535179615021,-1.6855603456497192,0.7276425361633301,12.233735084533691
1695668706337377024,1695668706336581489,-0.0330050103366375,-0.09191545844078064,0.03571614250540733,-1.861342191696167,0.6462636590003967,12.666736602783203
1695668706346780160,1695668706346671131,-0.03950050473213196,-0.1154927983880043,0.027025068178772926,-2.0784876346588135,0.6006205677986145,13.13992691040039
1695668706352617984,1695668706356768384,-0.04230198636651039,-0.14352020621299744,0.03762856498360634,-2.3378829956054688,0.5544657707214355,13.510049819946289
1695668706365773056,1695668706366852707,-0.02052820846438408,-0.18454819917678833,0.02356126345694065,-2.5263609886169434,0.5199337601661682,13.613566398620605
1695668706375768832,1695668706376942676,0.009388956241309643,-0.216241717338562,0.03350260481238365,-2.605266571044922,0.4940342605113983,13.33662223815918
1695668706386662912,1695668706387042250,0.039779748767614365,-0.24343019723892212,0.040146999061107635,-2.5533833503723145,0.3225231170654297,12.640563011169434
1695668706395778048,1695668706395116097,0.04724086448550224,-0.26031041145324707,0.03267202153801918,-2.41424298286438,0.09492739289999008,11.664772987365723
1695668706405816064,1695668706409239931,0.04885675385594368,-0.28045907616615295,0.01632198691368103,-2.4078125953674316,-0.10167068243026733,10.679792404174805
1695668706415833088,1695668706417298128,0.04568145051598549,-0.2819995880126953,0.009381565265357494,-2.658087968826294,-0.2831038236618042,9.831527709960938
1695668706425900032,1695668706427379482,0.03686436638236046,-0.2724018692970276,0.004859725013375282,-2.946320056915283,-0.4884825646877289,9.081348419189453
1695668706435746048,1695668706437463817,0.0406084768474102,-0.26751387119293213,-0.01614045538008213,-3.393068790435791,-0.6815260052680969,8.488821983337402
1695668706445827072,1695668706447551618,0.0435890331864357,-0.258334219455719,-0.013826961629092693,-3.7911813259124756,-0.8777704238891602,7.949718952178955
1695668706455737088,1695668706455618675,0.05376201495528221,-0.2535426616668701,-0.024489616975188255,-4.042036533355713,-1.1250343322753906,7.429309844970703
1695668706470902016,1695668706471755935,0.03174139931797981,-0.2316928505897522,-0.03057633340358734,-4.162659168243408,-1.3278803825378418,6.9112420082092285
1695668706475688960,1695668706476014760,0.018124457448720932,-0.2035437375307083,-0.03818942606449127,-4.073430061340332,-1.4914915561676025,6.515195846557617
1695668706485769984,1695668706486104945,-0.014495247043669224,-0.177066370844841,-0.045513689517974854,-3.9052789211273193,-1.4491653442382812,6.376914024353027
1695668706495745024,1695668706496187434,-0.059672050178050995,-0.146071657538414,-0.05834972858428955,-3.6156177520751953,-1.242286205291748,6.515171527862549
1695668706505761024,1695668706506263249,-0.09918326884508133,-0.09943178296089172,-0.053541265428066254,-3.3061411380767822,-0.9678806066513062,6.9720377922058105
1695668706515776000,1695668706520411723,-0.12791353464126587,-0.05991549417376518,-0.052393652498722076,-3.044083595275879,-0.715747058391571,7.613396644592285
1695668706525938944,1695668706526458013,-0.13651780784130096,-0.023599615320563316,-0.06543098390102386,-2.844712972640991,-0.4307039976119995,8.335107803344727
1695668706535723008,1695668706536540869,-0.12600164115428925,0.014941874891519547,-0.05127108469605446,-2.672525644302368,-0.19883057475090027,8.969266891479492
1695668706545716992,1695668706546628130,-0.0956246480345726,0.0346345379948616,-0.061482466757297516,-2.472759485244751,-0.021962899714708328,9.377483367919922
1695668706555772928,1695668706556710012,-0.06199316307902336,0.032469891011714935,-0.05327426269650459,-2.186789035797119,0.18593208491802216,9.512748718261719
1695668706566364160,1695668706566783166,-0.03869284689426422,0.04806984215974808,-0.043266329914331436,-1.8547173738479614,0.32335057854652405,9.372892379760742
1695668706575817216,1695668706574852074,-0.01955355331301689,0.05264298990368843,-0.049716755747795105,-1.5184828042984009,0.42232608795166016,9.031744003295898
1695668706585926912,1695668706586953684,-0.011780403554439545,0.06764531880617142,-0.04126172140240669,-1.2301461696624756,0.4677645266056061,8.646848678588867
1695668706595806976,1695668706595034670,0.004810316488146782,0.055561650544404984,-0.0480213388800621,-1.0466114282608032,0.4841518998146057,8.309117317199707
1695668706611810816,1695668706611442016,-0.012104148976504803,0.06731594353914261,-0.036398470401763916,-0.9367159605026245,0.47308820486068726,8.026806831359863
1695668706615672064,1695668706615476722,-0.03236890584230423,0.05181003734469414,-0.0433734729886055,-0.8795463442802429,0.4240730404853821,7.817777156829834
1695668706625725952,1695668706625552523,-0.030705109238624573,0.04862179234623909,-0.04243877902626991,-0.8840425610542297,0.37602096796035767,7.668759822845459
1695668706635777024,1695668706635633751,-0.03646962717175484,0.051804572343826294,-0.03655601665377617,-0.8910806179046631,0.2977970838546753,7.547490119934082
1695668706645708032,1695668706645723943,-0.03243042901158333,0.04955437406897545,-0.02017182856798172,-0.9269164800643921,0.2460915893316269,7.444463729858398
1695668706655916032,1695668706655806927,-0.041522394865751266,0.06206997483968735,-0.010721231810748577,-0.950705885887146,0.18164534866809845,7.364510536193848
1695668706665807104,1695668706665884654,-0.043627671897411346,0.05525067821145058,-0.010992013849318027,-0.9934332966804504,0.12673403322696686,7.3263115882873535
1695668706675712000,1695668706675974312,-0.07632388919591904,0.050683826208114624,-0.014760256744921207,-1.0396044254302979,0.04783055558800697,7.385806083679199
1695668706685731840,1695668706686042607,-0.08184688538312912,0.07279599457979202,-0.008163301274180412,-1.119452953338623,-0.029636064544320107,7.566592216491699
1695668706695780096,1695668706696120172,-0.08327888697385788,0.08078183233737946,-0.010879688896238804,-1.1911576986312866,-0.12376125901937485,7.855381011962891
1695668706706494976,1695668706706201134,-0.077180415391922,0.08832328766584396,-0.006780371535569429,-1.2618820667266846,-0.23808050155639648,8.182482719421387
1695668706715811840,1695668706716285670,-0.0693049505352974,0.09518305957317352,-0.007340517360717058,-1.3127551078796387,-0.399057000875473,8.517437934875488
1695668706726903808,1695668706728398626,-0.05533868074417114,0.10286054015159607,-0.0032472664024680853,-1.2545132637023926,-0.5013112425804138,8.821061134338379
1695668706735749120,1695668706736457997,-0.042571235448122025,0.11015133559703827,-0.01605403609573841,-1.1896289587020874,-0.6122094392776489,9.057467460632324
1695668706745774080,1695668706746537702,-0.03337642550468445,0.103087417781353,-0.022318871691823006,-1.0532654523849487,-0.6495484709739685,9.243108749389648
1695668706755837952,1695668706756613612,-0.02106395736336708,0.1029461994767189,-0.02704514190554619,-0.9428050518035889,-0.598786473274231,9.465583801269531
1695668706765840896,1695668706768720019,-0.022471945732831955,0.0885915607213974,-0.03403941169381142,-0.901984453201294,-0.5600996017456055,9.743515968322754
1695668706775727104,1695668706776783236,-0.023862291127443314,0.09012798219919205,-0.04349466413259506,-0.8867628574371338,-0.4784274399280548,10.081585884094238
1695668706785852928,1695668706786865166,-0.023056022822856903,0.05990258976817131,-0.044031258672475815,-0.9165925979614258,-0.3655414879322052,10.475642204284668
1695668706795854080,1695668706796939407,-0.015230718068778515,0.05675701051950455,-0.0410686619579792,-0.9645490050315857,-0.28754517436027527,10.86766242980957
1695668706806387968,1695668706807031413,-0.0045881206169724464,0.023556947708129883,-0.03675055876374245,-0.9464170932769775,-0.21190854907035828,11.26448917388916
1695668706815772928,1695668706817111085,0.01932353526353836,-0.0042865383438766,-0.02832978591322899,-0.9079570770263672,-0.1999082714319229,11.582291603088379
1695668706825903872,1695668706825184463,0.045708730816841125,-0.04167485609650612,-0.024111079052090645,-0.7987765669822693,-0.16122692823410034,11.804572105407715
1695668706835824128,1695668706839287077,0.06403409689664841,-0.07273748517036438,-0.024025989696383476,-0.6670578122138977,-0.14035065472126007,11.8996000289917
1695668706845822208,1695668706845340736,0.08414874225854874,-0.11418677121400833,-0.02253037691116333,-0.4726563096046448,-0.1292864829301834,11.850664138793945
1695668706855844096,1695668706859467891,0.10743901133537292,-0.14627929031848907,-0.037000589072704315,-0.2192354053258896,-0.11608189344406128,11.655216217041016
1695668706865746944,1695668706865509884,0.12242305278778076,-0.18088380992412567,-0.023966962471604347,0.02589872106909752,-0.09620470553636551,11.370028495788574
1695668706875761152,1695668706875587406,0.13595890998840332,-0.20343856513500214,-0.03706205636262894,0.2496887743473053,-0.023224443197250366,11.104557991027832
1695668706889869824,1695668706889678329,0.14376595616340637,-0.24051883816719055,-0.028144972398877144,0.3526139259338379,0.007302341517060995,10.971485137939453
1695668706896246016,1695668706897741819,0.12452497333288193,-0.26688092947006226,-0.02799065224826336,0.34446048736572266,0.07621230185031891,11.106494903564453
1695668706905750016,1695668706905805368,0.10243847221136093,-0.2875232696533203,-0.030106153339147568,-0.06002872809767723,0.24630501866340637,11.561450004577637
1695668706915836160,1695668706919923398,0.07668029516935349,-0.29111868143081665,-0.025386778637766838,-0.5231904983520508,0.3500664234161377,12.182991981506348
1695668706925762048,1695668706927988452,0.0949874073266983,-0.3186150789260864,-0.01236772071570158,-0.8968120217323303,0.4640316963195801,12.73550796508789
1695668706935812096,1695668706936049006,0.11122341454029083,-0.34156373143196106,0.004629326052963734,-1.418273687362671,0.6751949191093445,13.221755981445312
1695668706945769984,1695668706946141432,0.12828406691551208,-0.3668998181819916,0.018808970227837563,-1.9567517042160034,0.9571139812469482,13.52579402923584
1695668706955843072,1695668706956224294,0.13575270771980286,-0.35984620451927185,0.029628854244947433,-2.4015140533447266,1.2830917835235596,13.608196258544922
1695668706965844992,1695668706966310346,0.1302574872970581,-0.34223049879074097,0.05124038830399513,-2.9687201976776123,1.6155349016189575,13.547595024108887
1695668706975918080,1695668706976374997,0.1106511726975441,-0.33388984203338623,0.06218184903264046,-3.6795809268951416,1.856635332107544,13.40689468383789
1695668706985905920,1695668706986473595,0.09778402745723724,-0.33167997002601624,0.0825934186577797,-4.336419105529785,1.895196557044983,13.040423393249512
1695668706995794944,1695668706996559418,0.10013890266418457,-0.31442776322364807,0.11412002146244049,-4.7759575843811035,1.7047407627105713,12.290336608886719
1695668707005796864,1695668707006651525,0.11082899570465088,-0.2891140580177307,0.14323516190052032,-4.848501682281494,1.3195074796676636,11.064789772033691
1695668707022414848,1695668707024791572,0.12605047225952148,-0.2762162983417511,0.16448459029197693,-4.653975963592529,0.8348327875137329,9.518239974975586
1695668707026185984,1695668707026804817,0.10501787811517715,-0.2438356578350067,0.18778279423713684,-4.26836633682251,0.3573204278945923,7.870622634887695
1695668707035778048,1695668707036877321,0.03537122905254364,-0.17786748707294464,0.19547617435455322,-3.8016953468322754,0.08451800793409348,6.449862480163574
1695668707046678016,1695668707048980108,-0.06600818783044815,-0.12686894834041595,0.180946946144104,-3.496868133544922,0.032213568687438965,5.592408180236816
1695668707055755008,1695668707055038728,-0.14635927975177765,-0.07403768599033356,0.17213068902492523,-3.303651809692383,0.13425204157829285,5.3159499168396
1695668707066201088,1695668707067118137,-0.1974864900112152,-0.0421917699277401,0.176735058426857,-3.2399322986602783,0.28819260001182556,5.519586563110352
1695668707075822080,1695668707075189567,-0.2023826390504837,-0.004713024944067001,0.17633278667926788,-3.1268670558929443,0.4437554180622101,5.944672107696533
1695668707085800960,1695668707085263819,-0.18490485846996307,0.04384792968630791,0.15923798084259033,-3.0170111656188965,0.5327353477478027,6.3905439376831055
1695668707095736064,1695668707095345921,-0.1644641011953354,0.07577408850193024,0.14947502315044403,-2.8011908531188965,0.600013256072998,6.763773441314697
1695668707105957888,1695668707105425911,-0.12652188539505005,0.12229212373495102,0.1300298124551773,-2.5678977966308594,0.6532257199287415,7.035202503204346
1695668707115916032,1695668707115504245,-0.09828083962202072,0.14053073525428772,0.10523233562707901,-2.335618257522583,0.6973512768745422,7.350063323974609
1695668707125763840,1695668707127657993,-0.06722686439752579,0.15191487967967987,0.08415713906288147,-2.0587472915649414,0.766120970249176,7.726905345916748
1695668707135755008,1695668707135721297,-0.042684588581323624,0.16917717456817627,0.05820697918534279,-1.814907431602478,0.8137595653533936,8.240687370300293
1695668707145771008,1695668707145811626,-0.002139527117833495,0.18783453106880188,0.028538808226585388,-1.684338927268982,0.8392539620399475,8.842842102050781
1695668707157286912,1695668707159918913,0.04831144958734512,0.1976040154695511,0.014397962018847466,-1.563092827796936,0.8157274723052979,9.41661262512207
1695668707165811968,1695668707165968387,0.1021430641412735,0.19226619601249695,-0.009289979003369808,-1.483208179473877,0.7383018136024475,9.802711486816406
1695668707175853056,1695668707176049181,0.1663392335176468,0.19062644243240356,-0.019362209364771843,-1.3661388158798218,0.6347334384918213,9.898368835449219
1695668707185787904,1695668707186134625,0.21082575619220734,0.1742609739303589,-0.03267757594585419,-1.2047622203826904,0.4685397744178772,9.698278427124023
1695668707195760896,1695668707196213322,0.21406371891498566,0.16967296600341797,-0.035151008516550064,-1.0320900678634644,0.3008557856082916,9.342820167541504
1695668707206401024,1695668707206296175,0.19433340430259705,0.1617163121700287,-0.05085444077849388,-0.9534925222396851,0.12293938547372818,8.957721710205078
1695668707216551936,1695668707218403213,0.16473014652729034,0.1529858410358429,-0.06973927468061447,-0.9053773283958435,-0.04185378924012184,8.673891067504883
1695668707225867008,1695668707226479949,0.14470337331295013,0.14415386319160461,-0.0825347751379013,-0.9297022819519043,-0.11653507500886917,8.551383018493652
1695668707235738880,1695668707236557810,0.12500497698783875,0.1337112933397293,-0.08732697367668152,-1.0069983005523682,-0.09773553907871246,8.521909713745117
1695668707249171968,1695668707250670520,0.10416910797357559,0.13201020658016205,-0.09142729640007019,-1.1072453260421753,0.04381924122571945,8.526924133300781
1695668707257572864,1695668707256715570,0.08428827673196793,0.13400804996490479,-0.101547010242939,-1.2027349472045898,0.2599543631076813,8.549783706665039
1695668707265894912,1695668707268795267,0.06816289573907852,0.12770137190818787,-0.10101687908172607,-1.3417211771011353,0.514581561088562,8.566404342651367
1695668707275789056,1695668707276854257,0.055524792522192,0.12757408618927002,-0.11160670965909958,-1.3688342571258545,0.7560088634490967,8.590073585510254
1695668707285824000,1695668707286917293,0.03563127666711807,0.1299424171447754,-0.11593357473611832,-1.393330693244934,0.9251425862312317,8.672003746032715
1695668707295908864,1695668707296998122,0.005561129190027714,0.12755022943019867,-0.11087666451931,-1.4336848258972168,1.0822681188583374,8.85039234161377
1695668707306628864,1695668707309100212,0.005607219412922859,0.13999740779399872,-0.11895907670259476,-1.493316650390625,1.17367422580719,9.09505844116211
1695668707316258816,1695668707317172713,-0.004110520705580711,0.1608182042837143,-0.10618361830711365,-1.5394877195358276,1.2006444931030273,9.335868835449219
1695668707326734080,1695668707327248071,0.0030038757249712944,0.16102823615074158,-0.11101489514112473,-1.4980205297470093,1.2269097566604614,9.508613586425781
1695668707337594112,1695668707337320082,0.015084288083016872,0.1497803032398224,-0.10649194568395615,-1.425826072692871,1.1463156938552856,9.561190605163574
1695668707345869056,1695668707345385001,0.034351132810115814,0.15743111073970795,-0.11195483058691025,-1.2296221256256104,1.0767658948898315,9.466496467590332
1695668707355901952,1695668707361538987,0.02581358700990677,0.1655387431383133,-0.11134423315525055,-1.0556731224060059,1.0105682611465454,9.367019653320312
1695668707365818880,1695668707365575281,0.02813146263360977,0.1610070765018463,-0.10029212385416031,-0.9686711430549622,0.9170061945915222,9.307352066040039
1695668707375844096,1695668707375660331,0.008642866276204586,0.1604192554950714,-0.11669682711362839,-0.8472484350204468,0.8688526153564453,9.332529067993164
1695668707385929984,1695668707385733464,0.006970347836613655,0.16545511782169342,-0.11706777662038803,-0.8263710141181946,0.8392411470413208,9.450878143310547
1695668707396379904,1695668707395826788,-0.022005615755915642,0.14993634819984436,-0.11699581891298294,-0.8227145075798035,0.8341925144195557,9.62825870513916
1695668707405807872,1695668707405908189,-0.01301098894327879,0.11505832523107529,-0.11657875776290894,-0.7450137138366699,0.8440378904342651,9.764556884765625
1695668707415862016,1695668707418021818,-0.005282329861074686,0.09938488900661469,-0.10523170977830887,-0.6553706526756287,0.8991873860359192,9.828548431396484
1695668707425796096,1695668707426089721,-0.009327718056738377,0.08355480432510376,-0.10768882930278778,-0.6572479605674744,0.9588841199874878,9.889301300048828
1695668707435873024,1695668707436644850,-0.0160493403673172,0.07368255406618118,-0.10723510384559631,-0.6599270105361938,0.953092634677887,9.961827278137207
1695668707445782016,1695668707446732290,-0.046341102570295334,0.047996487468481064,-0.10046947002410889,-0.712211549282074,0.9352315068244934,10.089508056640625
1695668707456030976,1695668707456819792,-0.08337298780679703,0.02406974881887436,-0.1049322858452797,-0.8220411539077759,0.9170337319374084,10.252202987670898
1695668707465956096,1695668707466907690,-0.0931376963853836,-0.011185175739228725,-0.10676734894514084,-0.8661103248596191,0.9051616191864014,10.432883262634277
1695668707480370944,1695668707481016396,-0.10311222076416016,-0.037747446447610855,-0.09822534024715424,-0.8826707601547241,0.8929347395896912,10.556198120117188
1695668707485844992,1695668707485234853,-0.09049540758132935,-0.05067749321460724,-0.09320468455553055,-0.8393221497535706,0.8628793954849243,10.604784965515137
1695668707495849984,1695668707495312387,-0.0859803780913353,-0.06531411409378052,-0.09144876152276993,-0.724331259727478,0.8694620728492737,10.553038597106934
1695668707505851904,1695668707507415899,-0.07884449511766434,-0.1020863950252533,-0.0873279869556427,-0.6131874322891235,0.9881429672241211,10.520759582519531
1695668707515873792,1695668707515494457,-0.08678131550550461,-0.12212450802326202,-0.08536533266305923,-0.7356840372085571,1.2041882276535034,10.665121078491211
1695668707525868032,1695668707525588464,-0.10370294004678726,-0.11363662034273148,-0.1029091477394104,-1.022314429283142,1.2874224185943604,11.0630464553833
1695668707535897088,1695668707535705639,-0.11035450547933578,-0.11748424172401428,-0.10155623406171799,-1.2369283437728882,1.2148913145065308,11.55283260345459
1695668707545802240,1695668707545804645,-0.10337696224451065,-0.1422291100025177,-0.10367883741855621,-1.5351747274398804,1.1871275901794434,12.140530586242676
1695668707555836928,1695668707555886563,-0.06294948607683182,-0.1634460985660553,-0.08745212107896805,-1.9079543352127075,1.269873023033142,12.641440391540527
1695668707565923072,1695668707565970589,-0.02450878731906414,-0.16806070506572723,-0.06845910847187042,-2.2105584144592285,1.3326287269592285,12.879100799560547
1695668707575827968,1695668707576314354,0.01635967195034027,-0.1556629091501236,-0.043255195021629333,-2.45473575592041,1.4054726362228394,12.845643997192383
1695668707585903872,1695668707586400976,0.010214109905064106,-0.15700015425682068,-0.021400664001703262,-2.783546209335327,1.4560377597808838,12.673523902893066
1695668707595855872,1695668707596491839,-0.011121409013867378,-0.1552647203207016,-0.002896240446716547,-3.185854196548462,1.4551219940185547,12.50577163696289
1695668707605828096,1695668707606594216,-0.04489468038082123,-0.15166780352592468,0.012031090445816517,-3.6462931632995605,1.4315587282180786,12.343377113342285
1695668707615962880,1695668707616685696,-0.04761280119419098,-0.1499571055173874,0.04620544612407684,-3.9943153858184814,1.352674126625061,12.034158706665039
1695668707625991936,1695668707626767842,-0.0033353662583976984,-0.1568354368209839,0.06623966991901398,-4.122671604156494,1.2190793752670288,11.417479515075684
1695668707635823872,1695668707634839242,0.06066888943314552,-0.11980803310871124,0.09715648740530014,-4.114471912384033,1.0444453954696655,10.4093656539917
1695668707645972992,1695668707646947005,0.11117909103631973,-0.09700340777635574,0.11538496613502502,-3.927645206451416,0.8491513133049011,9.155867576599121
1695668707655832064,1695668707657033223,0.11733023822307587,-0.06487520784139633,0.126341313123703,-3.6950032711029053,0.6133169531822205,7.861367702484131
1695668707665873920,1695668707665120288,0.06922457367181778,-0.038250379264354706,0.12083864212036133,-3.488058567047119,0.3557015359401703,6.877669811248779
1695668707675991040,1695668707675188935,0.03020639717578888,-0.025064030662178993,0.11511547863483429,-3.3339381217956543,0.03892340883612633,6.403557777404785
1695668707685814016,1695668707685590323,-0.015147218480706215,-0.022059530019760132,0.1026962473988533,-3.2254843711853027,-0.405348002910614,6.44049072265625
1695668707695916032,1695668707695668901,-0.02164253406226635,0.0015495812986046076,0.09962188452482224,-3.087205171585083,-0.8870632648468018,6.826997756958008
1695668707705984000,1695668707705738770,-0.02333315834403038,0.040952663868665695,0.09558359533548355,-2.9236762523651123,-1.399618148803711,7.409212112426758
1695668707715862016,1695668707715808868,-0.02904467098414898,0.056056998670101166,0.08865847438573837,-2.734018564224243,-1.8281066417694092,7.980679035186768
1695668707725935104,1695668707725897310,-0.050485968589782715,0.0814671665430069,0.07035232335329056,-2.5106730461120605,-1.9734643697738647,8.514009475708008
1695668707735934976,1695668707735985762,-0.06572320312261581,0.08355940878391266,0.07151780277490616,-2.3707118034362793,-1.7994118928909302,9.034067153930664
1695668707749442048,1695668707750121087,-0.08132871240377426,0.08773128688335419,0.05727519094944,-2.257068395614624,-1.3640048503875732,9.532666206359863
1695668707756777984,1695668707756164547,-0.09634368121623993,0.09854275733232498,0.03937763720750809,-2.193880319595337,-0.8631479144096375,9.988692283630371
1695668707765957120,1695668707768271377,-0.09425969421863556,0.11572520434856415,0.03908070549368858,-2.174814224243164,-0.5066959261894226,10.348129272460938
1695668707775888896,1695668707778366629,-0.08374390006065369,0.10648749023675919,0.02475937083363533,-2.079444646835327,-0.15580964088439941,10.54390811920166
1695668707785895936,1695668707786435640,-0.06985409557819366,0.1034095361828804,0.0164423119276762,-1.9797941446304321,0.08306927978992462,10.513932228088379
1695668707797161984,1695668707798538447,-0.02882067859172821,0.07286020368337631,0.009781913831830025,-1.7678412199020386,0.26648491621017456,10.254118919372559
1695668707806744064,1695668707808619383,-0.014387644827365875,0.07358123362064362,0.020224357023835182,-1.498816967010498,0.38130927085876465,9.76975154876709
1695668707815883008,1695668707816691783,0.0061557902954518795,0.08000059425830841,0.0191850233823061,-1.3125717639923096,0.4577066898345947,9.228878021240234
1695668707825833984,1695668707826777913,0.011315617710351944,0.07019015401601791,0.0037023003678768873,-1.1927839517593384,0.4438578188419342,8.72712516784668
1695668707835803904,1695668707836855547,-0.006252477411180735,0.06505797803401947,0.008988593704998493,-1.138326644897461,0.38406890630722046,8.300936698913574
1695668707845884928,1695668707846917702,-0.028829975053668022,0.03291594609618187,0.016285181045532227,-1.1514769792556763,0.3282836079597473,7.997123718261719
1695668707855860992,1695668707856997151,-0.04012780636548996,0.03158680722117424,0.004245578311383724,-1.1633645296096802,0.2781729996204376,7.774034023284912
1695668707865915136,1695668707867092572,-0.05655334144830704,0.048037562519311905,0.020389804616570473,-1.3057373762130737,0.19110241532325745,7.661079406738281
1695668707876290048,1695668707877179835,-0.07245476543903351,0.0637255534529686,0.011294642463326454,-1.459051251411438,0.1439063549041748,7.63104772567749
1695668707886766080,1695668707887252394,-0.09951424598693848,0.07475890219211578,0.020738510414958,-1.7118175029754639,0.08438807725906372,7.696488380432129
1695668707895971072,1695668707895303732,-0.12944242358207703,0.0625639334321022,0.028815198689699173,-1.9017813205718994,0.051018137484788895,7.8249311447143555
1695668707906168064,1695668707907403561,-0.1546379178762436,0.06549906730651855,0.036264799535274506,-1.959012508392334,0.012857228517532349,7.995161533355713
1695668707916820992,1695668707919513979,-0.16320201754570007,0.08717382699251175,0.04762021452188492,-1.969922661781311,-0.06760202348232269,8.229314804077148
1695668707925949952,1695668707927587922,-0.16644300520420074,0.11487359553575516,0.04229496419429779,-1.873295545578003,-0.1624743640422821,8.503138542175293
1695668707938941952,1695668707939680251,-0.16521058976650238,0.12179568409919739,0.03474397584795952,-1.8067657947540283,-0.2437245100736618,8.825927734375
1695668707945795072,1695668707945728616,-0.1468167006969452,0.13450829684734344,0.03816797956824303,-1.7237341403961182,-0.3193289041519165,9.125514030456543
1695668707955883008,1695668707955816912,-0.13433095812797546,0.12742827832698822,0.042560383677482605,-1.518764853477478,-0.36781245470046997,9.359267234802246
1695668707965971968,1695668707965898372,-0.11597812175750732,0.128379225730896,0.026993529871106148,-1.2900196313858032,-0.42446932196617126,9.503619194030762
1695668707976157952,1695668707978001795,-0.09681321680545807,0.15508218109607697,0.01848955824971199,-1.0524488687515259,-0.41788750886917114,9.62621021270752
1695668707985987840,1695668707986077610,-0.06133310869336128,0.15450981259346008,0.013945646584033966,-0.8965593576431274,-0.4092099964618683,9.730644226074219
1695668707995915776,1695668708000192986,-0.03946700692176819,0.16306395828723907,0.00016437846352346241,-0.785072922706604,-0.36033400893211365,9.82630443572998
1695668708005901056,1695668708008262492,-0.0046124705113470554,0.1493537873029709,-0.013926936313509941,-0.690401554107666,-0.2600671947002411,9.92873477935791
1695668708015932928,1695668708018349404,0.00601048581302166,0.12343264371156693,-0.012757405638694763,-0.6143196821212769,-0.1368323415517807,10.007274627685547
1695668708025991936,1695668708026450494,0.02844432182610035,0.10918682813644409,-0.0043233102187514305,-0.5090757012367249,-0.009557279758155346,10.054278373718262
1695668708036134912,1695668708036539195,0.04605734348297119,0.09309554845094681,-0.022059161216020584,-0.4268561899662018,0.12602746486663818,10.08163070678711
1695668708045903872,1695668708046628273,0.06495577841997147,0.07479669898748398,-0.00965069979429245,-0.41002029180526733,0.26372283697128296,10.125005722045898
1695668708055923968,1695668708056721712,0.06864260137081146,0.061840493232011795,-0.0013748649507761002,-0.41610243916511536,0.3659452199935913,10.198957443237305
1695668708065867008,1695668708066791152,0.06728136539459229,0.038444634526968,0.0058941165916621685,-0.4965793490409851,0.4682028293609619,10.322471618652344
1695668708076865792,1695668708078880284,0.06714832037687302,0.0037937816232442856,0.018078645691275597,-0.6076187491416931,0.547163188457489,10.486592292785645
1695668708085974016,1695668708086945671,0.06086934357881546,-0.014180704951286316,0.028136098757386208,-0.7490805387496948,0.5946369171142578,10.67373275756836
1695668708095860992,1695668708097022139,0.059716783463954926,-0.04524814710021019,0.02932748571038246,-0.8719449639320374,0.612286388874054,10.870338439941406
1695668708106772992,1695668708109120627,0.05745859071612358,-0.057499490678310394,0.05207499861717224,-0.9440718293190002,0.5789628028869629,11.021854400634766
1695668708116251904,1695668708117186009,0.07136276364326477,-0.07449493557214737,0.05972854048013687,-1.0339592695236206,0.46220386028289795,11.10113525390625
1695668708125950976,1695668708127251329,0.06695050001144409,-0.10116706788539886,0.07067061215639114,-0.995061993598938,0.35065364837646484,11.067313194274902
1695668708135976192,1695668708135321644,0.07400044798851013,-0.12369636446237564,0.07447449862957001,-1.004655122756958,0.1938800811767578,11.021727561950684
1695668708145984768,1695668708147417454,0.07075535506010056,-0.1407518982887268,0.07877862453460693,-1.1188087463378906,0.14576296508312225,11.120749473571777
1695668708157007872,1695668708157543191,0.056326109915971756,-0.12684208154678345,0.09091905504465103,-1.4050695896148682,0.21783675253391266,11.401357650756836
1695668708166017024,1695668708165610982,0.03581475093960762,-0.12683941423892975,0.0876651406288147,-1.7025787830352783,0.2752476930618286,11.776347160339355
1695668708178152192,1695668708177720782,0.03931033983826637,-0.1378389596939087,0.08615928143262863,-1.949011206626892,0.2986370921134949,12.094451904296875
1695668708185882112,1695668708185784825,0.052514463663101196,-0.16771765053272247,0.0898841992020607,-2.123563766479492,0.2748945355415344,12.247352600097656
1695668708195909120,1695668708195890247,0.07331854104995728,-0.18399442732334137,0.10317076742649078,-2.1378326416015625,0.25084808468818665,12.140240669250488
1695668708208626944,1695668708207993693,0.09918267279863358,-0.19995279610157013,0.10266071557998657,-2.0614209175109863,0.2660280466079712,11.81203842163086
1695668708215992064,1695668708218071376,0.11136821657419205,-0.1925581693649292,0.11401379853487015,-2.064019203186035,0.28126606345176697,11.422016143798828
1695668708226707968,1695668708226170367,0.1045907512307167,-0.1861116886138916,0.1151372492313385,-2.2211570739746094,0.3549646735191345,11.142959594726562
1695668708235837952,1695668708236259091,0.07041659206151962,-0.18028119206428528,0.12255019694566727,-2.5255837440490723,0.42570143938064575,11.061928749084473
1695668708246048000,1695668708250369095,0.034584928303956985,-0.1890321522951126,0.136750727891922,-3.076375722885132,0.5888472199440002,11.140203475952148
1695668708255973120,1695668708256413893,0.022644462063908577,-0.1907719373703003,0.1536795049905777,-3.569934129714966,0.7412716150283813,11.17564868927002
1695668708266012928,1695668708266503710,0.044420234858989716,-0.16005168855190277,0.18038059771060944,-4.001519680023193,0.8411182761192322,10.928831100463867
1695668708275911168,1695668708276594509,0.08006101101636887,-0.13563919067382812,0.21646486222743988,-4.325493335723877,1.0114914178848267,10.270627975463867
1695668708285936128,1695668708286693434,0.08969711512327194,-0.10480288416147232,0.2302064597606659,-4.44468879699707,1.1279096603393555,9.238264083862305
1695668708296528128,1695668708296789865,0.06432177126407623,-0.08266950398683548,0.25261175632476807,-4.36398983001709,1.2374365329742432,8.062946319580078
1695668708306041088,1695668708307049828,0.0013334857067093253,-0.06519801914691925,0.2702227234840393,-4.128571510314941,1.3591125011444092,7.034888744354248
1695668708316328960,1695668708317147911,-0.061482448130846024,-0.04833131283521652,0.28195127844810486,-3.870109796524048,1.427898645401001,6.374667644500732
1695668708326112000,1695668708327230896,-0.12755222618579865,-0.00934505183249712,0.2762147784233093,-3.585014820098877,1.500986933708191,6.187880992889404
1695668708335952128,1695668708335310943,-0.17492058873176575,0.040980610996484756,0.27703940868377686,-3.487199544906616,1.5074937343597412,6.484292984008789
1695668708346256896,1695668708347411772,-0.1901044398546219,0.0881466418504715,0.27420729398727417,-3.357414484024048,1.426051139831543,7.069583892822266
1695668708356243968,1695668708355481253,-0.17124652862548828,0.10860510915517807,0.2566394805908203,-3.1774706840515137,1.2539137601852417,7.71966552734375
1695668708365915136,1695668708369604888,-0.1258702278137207,0.10966618359088898,0.2525883615016937,-2.900369167327881,1.0481204986572266,8.292022705078125
1695668708376271104,1695668708375664287,-0.07497164607048035,0.12229768186807632,0.23258110880851746,-2.476165533065796,0.8186739087104797,8.737176895141602
1695668708387227904,1695668708390145401,-0.04488523304462433,0.13814707100391388,0.19991637766361237,-2.033371686935425,0.5955787301063538,9.160295486450195
1695668708395965184,1695668708396201654,-0.01467696949839592,0.1594897359609604,0.16968390345573425,-1.707168698310852,0.3380022644996643,9.646768569946289
1695668708405945088,1695668708406296900,0.0019486270612105727,0.1635831743478775,0.14825880527496338,-1.5035827159881592,0.08920185267925262,10.205530166625977
1695668708415937792,1695668708416401406,0.04556112736463547,0.14447657763957977,0.1211511641740799,-1.3115497827529907,-0.17471322417259216,10.669523239135742
1695668708425992960,1695668708426470770,0.08759430050849915,0.12673212587833405,0.10601416975259781,-1.1310287714004517,-0.4465983808040619,10.924019813537598
1695668708435924992,1695668708436566026,0.14405983686447144,0.11632665246725082,0.08196759223937988,-0.9026734232902527,-0.6671387553215027,10.818628311157227
1695668708446206976,1695668708446655751,0.1669248789548874,0.10609156638383865,0.061596862971782684,-0.7360177040100098,-0.7751786112785339,10.364578247070312
1695668708456041984,1695668708464822523,0.18211007118225098,0.10588354617357254,0.03812547028064728,-0.6638692617416382,-0.7748502492904663,9.71745777130127
1695668708465965056,1695668708466836453,0.17966055870056152,0.07590491324663162,0.02698534168303013,-0.6998712420463562,-0.6535757184028625,9.026856422424316
1695668708475985152,1695668708476930864,0.15049615502357483,0.06331566721200943,-0.004135545343160629,-0.7367444038391113,-0.49158617854118347,8.43789005279541
1695668708488961024,1695668708489030285,0.11287298798561096,0.04827427864074707,-0.02160179801285267,-0.7929739356040955,-0.2826314866542816,8.034599304199219
1695668708496128000,1695668708499113831,0.09890054911375046,0.030647754669189453,-0.03530273959040642,-0.891636312007904,-0.06324711441993713,7.8427629470825195
1695668708506141952,1695668708507184866,0.07967890053987503,0.052681297063827515,-0.061170414090156555,-1.0309662818908691,0.1915103793144226,7.798977375030518
1695668708516041984,1695668708517259227,0.08061251044273376,0.046948689967393875,-0.06571123003959656,-1.2422336339950562,0.4218778908252716,7.801889419555664
1695668708526072064,1695668708527338723,0.08625525236129761,0.05533721297979355,-0.0733766034245491,-1.4317493438720703,0.6497197151184082,7.838096618652344
1695668708536094976,1695668708537444464,0.06161540374159813,0.03944697231054306,-0.0724501684308052,-1.5998404026031494,0.8172566294670105,7.867212772369385
1695668708546121984,1695668708547539976,0.03491102159023285,0.051233526319265366,-0.08529726415872574,-1.6315430402755737,0.911552369594574,7.905459403991699
1695668708556030976,1695668708555603265,-0.004168353974819183,0.05467779561877251,-0.09930592775344849,-1.593298077583313,0.9219570755958557,7.984660625457764
1695668708566041856,1695668708567712792,-0.021247481927275658,0.06328056007623672,-0.09223881363868713,-1.545972228050232,0.8691790699958801,8.199187278747559
1695668708576081152,1695668708575786413,-0.04219849407672882,0.06834279745817184,-0.09563042223453522,-1.4804866313934326,0.8443736433982849,8.498373031616211
1695668708586055168,1695668708589911930,-0.07087081670761108,0.09223151952028275,-0.09791731089353561,-1.4329103231430054,0.7746542692184448,8.860763549804688
1695668708595987200,1695668708597992906,-0.08851126581430435,0.08410315215587616,-0.08914398401975632,-1.3036444187164307,0.6945847272872925,9.171782493591309
1695668708605990912,1695668708606057758,-0.08938904851675034,0.08531049638986588,-0.09335517883300781,-1.0871161222457886,0.6428968906402588,9.38538646697998
1695668708619725824,1695668708622192450,-0.09181565791368484,0.08425538241863251,-0.09643866866827011,-0.8924717307090759,0.5905503630638123,9.557706832885742
1695668708626096128,1695668708626226154,-0.08347916603088379,0.07391286641359329,-0.1001020148396492,-0.6622620224952698,0.523826003074646,9.653861045837402
1695668708636011008,1695668708636316171,-0.07616766542196274,0.07104840874671936,-0.11043088883161545,-0.5006104111671448,0.4296634793281555,9.757543563842773
1695668708646002176,1695668708646401615,-0.10808409750461578,0.05573961138725281,-0.12482023984193802,-0.3902714252471924,0.31657785177230835,9.885005950927734
1695668708655987968,1695668708656489015,-0.11385028064250946,0.029715461656451225,-0.137882798910141,-0.3341776430606842,0.2209787517786026,10.029406547546387
1695668708666113024,1695668708666560060,-0.12312019616365433,0.0004915092140436172,-0.14839494228363037,-0.3000153601169586,0.1442587524652481,10.21133804321289
1695668708675979008,1695668708678676007,-0.13190416991710663,-0.02449720725417137,-0.16334344446659088,-0.293017715215683,0.0606868639588356,10.346162796020508
1695668708685965056,1695668708686751732,-0.14237456023693085,-0.046378929167985916,-0.17742714285850525,-0.33396658301353455,0.021416617557406425,10.468873023986816
1695668708695931904,1695668708696830361,-0.1372528225183487,-0.06097882241010666,-0.17717032134532928,-0.46002715826034546,0.066930390894413,10.616029739379883
1695668708707734016,1695668708708936483,-0.14240385591983795,-0.08358439803123474,-0.18646857142448425,-0.6788021326065063,0.19773343205451965,10.704595565795898
1695668708715962880,1695668708716990381,-0.15240411460399628,-0.10487759113311768,-0.1984437257051468,-0.8081110119819641,0.4396889805793762,10.74413776397705
1695668708726042112,1695668708727079934,-0.14973784983158112,-0.11959164589643478,-0.1918022334575653,-0.9262098073959351,0.6485382318496704,10.703777313232422
1695668708736414976,1695668708737176621,-0.14715836942195892,-0.15104183554649353,-0.1978122740983963,-0.9026553630828857,0.8393625020980835,10.600976943969727
1695668708746097920,1695668708755326335,-0.12884360551834106,-0.17041359841823578,-0.19394253194332123,-0.7584013342857361,0.9789279699325562,10.417778968811035
1695668708755984128,1695668708755326335,-0.11830532550811768,-0.17610739171504974,-0.198985755443573,-0.5583044290542603,1.0668189525604248,10.275839805603027
1695668708768050944,1695668708769443927,-0.11486770957708359,-0.18089930713176727,-0.200277179479599,-0.43773943185806274,1.1584445238113403,10.235580444335938
1695668708776055040,1695668708777514382,-0.106631800532341,-0.20527054369449615,-0.200893372297287,-0.30419042706489563,1.1766382455825806,10.312129974365234
1695668708786073856,1695668708787611942,-0.10187552869319916,-0.24264682829380035,-0.21144165098667145,-0.22304944694042206,1.1500656604766846,10.56491470336914
1695668708796050944,1695668708799719290,-0.07845202088356018,-0.2626415193080902,-0.2329450249671936,-0.1748678982257843,1.2058130502700806,11.00274658203125
1695668708806117888,1695668708806008312,-0.07152584195137024,-0.27756166458129883,-0.24403081834316254,-0.2974454164505005,1.0826115608215332,11.578831672668457
1695668708816015104,1695668708816086120,-0.04566993564367294,-0.28201863169670105,-0.2607402801513672,-0.4676521420478821,0.7375680208206177,12.185135841369629
1695668708825944832,1695668708826165770,-0.025601809844374657,-0.3029479384422302,-0.2777066230773926,-0.6171399354934692,0.2099226862192154,12.66352367401123
1695668708836038144,1695668708836247450,-0.026377864181995392,-0.3465186059474945,-0.2877194285392761,-0.8082641959190369,-0.23913218080997467,12.991937637329102
1695668708847092992,1695668708850362495,-0.004126647021621466,-0.385655015707016,-0.29649484157562256,-1.099958896636963,-0.45697590708732605,13.141205787658691
1695668708856057856,1695668708856418654,-0.013120058923959732,-0.37301668524742126,-0.2986295223236084,-1.443824291229248,-0.5344656705856323,13.09026050567627
1695668708865989888,1695668708866508414,-0.03514596074819565,-0.35976293683052063,-0.31399837136268616,-1.8500436544418335,-0.4515607953071594,12.902275085449219
1695668708875976192,1695668708876604168,-0.05526834726333618,-0.360336571931839,-0.320157527923584,-2.438685655593872,-0.22087474167346954,12.66322135925293
1695668708886198016,1695668708888731124,-0.08575529605150223,-0.3831454813480377,-0.31601089239120483,-3.031935930252075,0.010287083685398102,12.35338020324707
1695668708896032000,1695668708896791682,-0.08031384646892548,-0.39268651604652405,-0.3044814467430115,-3.606252670288086,0.17122283577919006,11.819493293762207
1695668708906300160,1695668708906887465,-0.041715122759342194,-0.3651599586009979,-0.29947730898857117,-4.0704216957092285,0.2591492235660553,10.983604431152344
1695668708916009984,1695668708914957360,0.01571911945939064,-0.32488617300987244,-0.2865141034126282,-4.337895393371582,0.301913857460022,9.873507499694824
1695668708926012928,1695668708927065065,0.07527022063732147,-0.2799006700515747,-0.289019912481308,-4.514867305755615,0.2469460517168045,8.625611305236816
1695668708936124928,1695668708937324509,0.09879946708679199,-0.245790496468544,-0.2835550904273987,-4.685220718383789,0.16462984681129456,7.3772125244140625
1695668708946123008,1695668708947417859,0.09907444566488266,-0.21830588579177856,-0.2768166661262512,-4.6244120597839355,0.027144674211740494,6.3799262046813965
1695668708956005120,1695668708957505025,0.06396100670099258,-0.1963815689086914,-0.26447996497154236,-4.429243564605713,-0.26146242022514343,5.8203020095825195
1695668708966537984,1695668708967610761,0.029339341446757317,-0.16273249685764313,-0.2545986771583557,-4.120914459228516,-0.5843783020973206,5.9036478996276855
1695668708975988992,1695668708975677944,-0.003271752269938588,-0.11423651874065399,-0.2542424499988556,-3.7725589275360107,-0.894831657409668,6.618110656738281
1695668708988576000,1695668708989800942,-0.031884629279375076,-0.02963576838374138,-0.23455819487571716,-3.406240701675415,-1.191163420677185,7.704414367675781
1695668708996077056,1695668708995854735,-0.040805310010910034,0.02829168178141117,-0.20482110977172852,-3.12109637260437,-1.256144642829895,8.906509399414062
1695668709006025984,1695668709005954946,-0.024725647643208504,0.061894189566373825,-0.1808776557445526,-2.9615073204040527,-1.0443007946014404,9.981135368347168
1695668709016073984,1695668709018051635,0.013662602752447128,0.0795547291636467,-0.1497483253479004,-2.6421568393707275,-0.6870690584182739,10.69250774383545
1695668709026240000,1695668709026106397,0.029747845605015755,0.08314819633960724,-0.11992186307907104,-2.190044403076172,-0.34197482466697693,10.904021263122559
1695668709036005120,1695668709037082889,0.03686004877090454,0.09461409598588943,-0.1034051924943924,-1.631853699684143,-0.06391078233718872,10.775646209716797
1695668709046040064,1695668709045146434,0.030422955751419067,0.10053007304668427,-0.10061506181955338,-1.103677749633789,0.18998201191425323,10.379701614379883
1695668709056027904,1695668709055223425,0.025032196193933487,0.09935719519853592,-0.08222821354866028,-0.709468424320221,0.43223974108695984,9.897814750671387
1695668709066087936,1695668709065305807,0.012155943550169468,0.09128725528717041,-0.08051066100597382,-0.4805217385292053,0.604938805103302,9.404776573181152
1695668709076265216,1695668709075372539,0.01292087510228157,0.0907638743519783,-0.07306519150733948,-0.29470178484916687,0.7838267683982849,8.929329872131348
1695668709086009856,1695668709085453986,0.0030261094216257334,0.08395981043577194,-0.06161562353372574,-0.2465609759092331,0.9043995141983032,8.45566177368164
1695668709096072960,1695668709095535653,-0.010827085934579372,0.06608080863952637,-0.04097888991236687,-0.278735488653183,0.9878826141357422,7.9839019775390625
1695668709105999104,1695668709107649547,-0.019086766988039017,0.05813160911202431,-0.019618244841694832,-0.402399480342865,1.0609595775604248,7.5362162590026855
1695668709118273024,1695668709121777539,-0.03220950439572334,0.05490373075008392,0.009290223009884357,-0.6249033212661743,1.05863356590271,7.122034549713135
1695668709126019072,1695668709125817760,-0.05452404171228409,0.056372128427028656,0.027041813358664513,-0.8210024833679199,1.0717155933380127,6.814572811126709
1695668709136305152,1695668709135898182,-0.08452486991882324,0.054558489471673965,0.05755017697811127,-1.0238093137741089,1.079782247543335,6.611961364746094
1695668709146137856,1695668709145996548,-0.1134321391582489,0.06389861553907394,0.08834581822156906,-1.2078211307525635,1.0420136451721191,6.572490215301514
1695668709156114176,1695668709156086541,-0.14915554225444794,0.07685141265392303,0.11424478143453598,-1.3685340881347656,0.9958964586257935,6.686673164367676
1695668709169938944,1695668709170209421,-0.15884898602962494,0.08613330870866776,0.1514311134815216,-1.5126285552978516,0.90961092710495,6.915737152099609
1695668709176086784,1695668709176251624,-0.159180149435997,0.10850061476230621,0.162261500954628,-1.6345690488815308,0.8320525288581848,7.235373020172119
1695668709186222080,1695668709186339680,-0.1629391461610794,0.14234361052513123,0.18025389313697815,-1.732699990272522,0.6642811894416809,7.643141746520996
1695668709196036096,1695668709196432550,-0.1444469541311264,0.15762314200401306,0.20703499019145966,-1.7532639503479004,0.5005831122398376,8.115958213806152
1695668709206296832,1695668709206522675,-0.12402097880840302,0.17688053846359253,0.21146859228610992,-1.6668769121170044,0.3335598111152649,8.574043273925781
1695668709216227072,1695668709217108572,-0.10444638133049011,0.1876726597547531,0.20941832661628723,-1.4530375003814697,0.09067153185606003,8.98537540435791
1695668709226187008,1695668709227191160,-0.055048439651727676,0.2077515721321106,0.22092130780220032,-1.1649024486541748,-0.12231626361608505,9.364673614501953
1695668709236203008,1695668709237287988,-0.022604379802942276,0.21327386796474457,0.20587670803070068,-0.8399599194526672,-0.30083751678466797,9.651538848876953
1695668709245987840,1695668709247385239,0.015358119271695614,0.22335119545459747,0.19748947024345398,-0.5543221831321716,-0.47165197134017944,9.840306282043457
1695668709256156928,1695668709256020542,0.05268745496869087,0.23179379105567932,0.18642456829547882,-0.27337202429771423,-0.6243866682052612,9.928412437438965
1695668709266094080,1695668709266109611,0.06085159257054329,0.21803027391433716,0.18697026371955872,-0.0380694717168808,-0.7172467112541199,9.862532615661621
1695668709276072960,1695668709278211426,0.06637232005596161,0.2143600434064865,0.1716235876083374,0.1354697346687317,-0.734833300113678,10.063591957092285
1695668709286024960,1695668709286285783,0.06975837796926498,0.19454656541347504,0.16447675228118896,0.27801135182380676,-0.7134969830513,10.216827392578125
1695668709296006912,1695668709296378754,0.054019588977098465,0.1956569254398346,0.14481015503406525,0.27444443106651306,-0.7286947965621948,10.41441535949707
1695668709306108928,1695668709306461100,0.061977189034223557,0.17053797841072083,0.1442996859550476,0.12530700862407684,-0.5902334451675415,10.710516929626465
1695668709316865024,1695668709316549516,0.04546715319156647,0.1378146857023239,0.15492433309555054,-0.0035780929028987885,-0.4878884255886078,10.961517333984375
1695668709326905856,1695668709326641523,0.048838045448064804,0.09359665960073471,0.150249183177948,-0.17670267820358276,-0.34281522035598755,11.159528732299805
1695668709337384960,1695668709336735874,0.05121208354830742,0.049978263676166534,0.1625569611787796,-0.22320787608623505,-0.20084360241889954,11.327507019042969
1695668709347002112,1695668709350860847,0.044194452464580536,0.01917276717722416,0.15333713591098785,-0.19190332293510437,-0.08471858501434326,11.41714096069336
1695668709356112128,1695668709356914667,0.04339362680912018,0.0007154793129302561,0.16184431314468384,-0.14102239906787872,-0.01945631578564644,11.514531135559082
1695668709366149888,1695668709367014066,0.05962473899126053,-0.031158890575170517,0.15890507400035858,-0.0943264365196228,0.03540564700961113,11.651629447937012
1695668709375993856,1695668709377118811,0.06700266152620316,-0.05413741618394852,0.14903263747692108,-0.05186735838651657,0.06872187554836273,11.816424369812012
1695668709386724096,1695668709387217604,0.09280931204557419,-0.09181392192840576,0.14680710434913635,0.07586286216974258,0.09834954142570496,11.94813060760498
1695668709396019968,1695668709395279592,0.11587323993444443,-0.12917578220367432,0.13899146020412445,0.2023746222257614,0.1043158695101738,12.054765701293945
1695668709407087104,1695668709408135843,0.1320696920156479,-0.1646396666765213,0.1486685574054718,0.3342973589897156,0.08103518933057785,12.138752937316895
1695668709416024832,1695668709416212091,0.15633346140384674,-0.19238561391830444,0.13674964010715485,0.39154207706451416,0.0579666867852211,12.29680061340332
1695668709426137088,1695668709426301020,0.1593058556318283,-0.20540642738342285,0.14490482211112976,0.17858587205410004,0.08795194327831268,12.559151649475098
1695668709436116992,1695668709440409370,0.16477815806865692,-0.21019241213798523,0.1488090306520462,-0.23386549949645996,0.21067258715629578,12.943937301635742
1695668709448235008,1695668709448666634,0.16486167907714844,-0.22758033871650696,0.1461574286222458,-0.7236844897270203,0.33834943175315857,13.302233695983887
1695668709456793088,1695668709458754318,0.1986570954322815,-0.2634144723415375,0.16454240679740906,-1.1923236846923828,0.5041919350624084,13.477359771728516
1695668709465963008,1695668709466832135,0.23585480451583862,-0.28324612975120544,0.17291931807994843,-1.6955766677856445,0.7770165205001831,13.456762313842773
1695668709476099840,1695668709476895740,0.2533683478832245,-0.28889966011047363,0.19114260375499725,-2.2697043418884277,1.1626152992248535,13.199210166931152
1695668709486332928,1695668709486970430,0.2792148292064667,-0.2733762562274933,0.21372953057289124,-2.902247667312622,1.5092374086380005,12.655766487121582
1695668709496066048,1695668709497055223,0.28066760301589966,-0.23393432796001434,0.22542881965637207,-3.6557626724243164,1.7618142366409302,11.923579216003418
1695668709506019072,1695668709505130490,0.26860886812210083,-0.22099082171916962,0.25334325432777405,-4.324835777282715,1.8668413162231445,11.04244327545166
1695668709516064000,1695668709515202030,0.24703389406204224,-0.22647739946842194,0.2826249599456787,-4.830936431884766,1.8667879104614258,9.960050582885742
1695668709529046016,1695668709529350572,0.22153303027153015,-0.21442562341690063,0.3203188478946686,-4.977320671081543,1.7029246091842651,8.673246383666992
1695668709536051968,1695668709535397337,0.17418932914733887,-0.208535835146904,0.3595700263977051,-4.752097129821777,1.4762569665908813,7.314573764801025
1695668709546055168,1695668709545482058,0.10965140163898468,-0.14783819019794464,0.392193466424942,-4.474930286407471,1.2325241565704346,6.062492847442627
1695668709556015872,1695668709555579582,0.016228364780545235,-0.09233823418617249,0.4208790957927704,-4.152512073516846,0.9449573159217834,5.177802085876465
1695668709566049024,1695668709565650009,-0.09063161164522171,-0.024485455825924873,0.4339628219604492,-3.8622255325317383,0.6539146304130554,4.771160125732422
1695668709576111104,1695668709575732565,-0.19862201809883118,0.017711570486426353,0.43550097942352295,-3.678213119506836,0.42850178480148315,5.019885063171387
1695668709586170880,1695668709585813562,-0.2782999575138092,0.05635901540517807,0.41279053688049316,-3.5538341999053955,0.19724510610103607,5.7890944480896
1695668709596070912,1695668709595905959,-0.30816441774368286,0.08386801928281784,0.4030671715736389,-3.3287391662597656,0.043223023414611816,6.909117698669434
1695668709606072064,1695668709608023070,-0.30595162510871887,0.129022017121315,0.3737507462501526,-3.006063938140869,-0.11845171451568604,8.095412254333496
1695668709616070144,1695668709616098823,-0.25935330986976624,0.16601639986038208,0.35436299443244934,-2.6330151557922363,-0.3028666377067566,9.17483901977539
1695668709626669056,1695668709626708296,-0.20493526756763458,0.2060280442237854,0.29558658599853516,-2.245342254638672,-0.4688419997692108,10.090804100036621
1695668709636024064,1695668709636789247,-0.14471839368343353,0.21731272339820862,0.26663926243782043,-1.8716137409210205,-0.6077982187271118,10.813689231872559
1695668709646078208,1695668709646869545,-0.08657429367303848,0.2077759951353073,0.21774771809577942,-1.4677972793579102,-0.7984400987625122,11.312292098999023
1695668709656001024,1695668709656957208,-0.03386717662215233,0.17847436666488647,0.17659936845302582,-1.015649437904358,-0.9613096714019775,11.561596870422363
1695668709669372928,1695668709669064406,0.028774743899703026,0.16915813088417053,0.13370388746261597,-0.5943548679351807,-1.1794906854629517,11.544061660766602
1695668709676281856,1695668709676924655,0.09221478551626205,0.16208571195602417,0.08483815938234329,-0.24785937368869781,-1.3375554084777832,11.235569953918457
1695668709686000128,1695668709687021623,0.15240463614463806,0.16190475225448608,0.042489465326070786,-0.0813833698630333,-1.5080671310424805,10.672597885131836
1695668709696024064,1695668709695100251,0.18601739406585693,0.13916443288326263,0.002227046061307192,0.016863491386175156,-1.5957279205322266,9.897891998291016
1695668709706191104,1695668709707194210,0.19255076348781586,0.11682756245136261,-0.02728811278939247,-0.00439315615221858,-1.497962474822998,9.030129432678223
1695668709716113920,1695668709715930719,0.18847963213920593,0.09270713478326797,-0.08171346783638,-0.07171373814344406,-1.2846672534942627,8.24072551727295
1695668709727153152,1695668709728036251,0.1727723926305771,0.07147035747766495,-0.10301955044269562,-0.1565355360507965,-0.9408043622970581,7.604269027709961
1695668709736076032,1695668709736100218,0.14734573662281036,0.07595579326152802,-0.12996791303157806,-0.3712436556816101,-0.543899655342102,7.216113090515137
1695668709746171904,1695668709750210215,0.14066050946712494,0.07632169127464294,-0.1485108733177185,-0.6345556974411011,-0.15194007754325867,7.025049686431885
1695668709756282112,1695668709756267560,0.12611587345600128,0.08735601603984833,-0.1661611944437027,-0.9200760126113892,0.18644191324710846,6.940237998962402
1695668709766089984,1695668709766972478,0.11162376403808594,0.07838210463523865,-0.17735855281352997,-1.2196400165557861,0.5216703414916992,6.905531883239746
1695668709776124928,1695668709777073240,0.09269193559885025,0.0797862857580185,-0.18448974192142487,-1.4338512420654297,0.8071836829185486,6.8869805335998535
1695668709786125056,1695668709787168003,0.06527486443519592,0.09876071661710739,-0.18502826988697052,-1.5880945920944214,0.982297420501709,6.897153854370117
1695668709796761088,1695668709801303044,0.045129355043172836,0.11248400807380676,-0.16899342834949493,-1.690750241279602,1.1015273332595825,7.013682842254639
1695668709806076928,1695668709806389294,0.01631205901503563,0.14323583245277405,-0.1693136841058731,-1.7314249277114868,1.170056700706482,7.2280778884887695
1695668709816150784,1695668709816482956,-0.03185173496603966,0.1574457883834839,-0.17226533591747284,-1.731283187866211,1.15867018699646,7.597788333892822
1695668709826020864,1695668709828590718,-0.059797704219818115,0.15704847872257233,-0.15216316282749176,-1.646141529083252,1.125692367553711,8.079410552978516
1695668709837203968,1695668709838675012,-0.08714921772480011,0.18076123297214508,-0.1492505967617035,-1.5237308740615845,1.033127784729004,8.601688385009766
1695668709846168064,1695668709850794975,-0.08447504043579102,0.19856178760528564,-0.14881618320941925,-1.3150192499160767,0.9635627269744873,9.070446014404297
1695668709856046080,1695668709856838325,-0.07024005800485611,0.21635597944259644,-0.14183171093463898,-1.1073322296142578,0.8559280037879944,9.437690734863281
1695668709866080000,1695668709866930181,-0.0581815242767334,0.2236594408750534,-0.14354835450649261,-0.8644721508026123,0.7637571692466736,9.710481643676758
1695668709876132864,1695668709877024508,-0.03927472233772278,0.21457205712795258,-0.152977854013443,-0.6347718834877014,0.6458415389060974,9.891419410705566
1695668709886046976,1695668709887101561,-0.03243526071310043,0.21506160497665405,-0.16223599016666412,-0.3907395005226135,0.603857159614563,10.022382736206055
1695668709897090048,1695668709897178671,-0.023645933717489243,0.20573781430721283,-0.16246134042739868,-0.18840807676315308,0.5254601836204529,10.171494483947754
1695668709906039040,1695668709905241072,-0.005211746320128441,0.1860867589712143,-0.16201598942279816,-0.03775225952267647,0.45598945021629333,10.330010414123535
1695668709916062208,1695668709915324325,0.0011019964003935456,0.16412800550460815,-0.16592590510845184,0.0938287153840065,0.41279760003089905,10.510163307189941
1695668709926060032,1695668709925412518,-0.004987102001905441,0.14954978227615356,-0.18199579417705536,0.1431185007095337,0.34720051288604736,10.673775672912598
1695668709936048896,1695668709935481755,0.013783467002213001,0.1245555728673935,-0.2006598562002182,0.1826133131980896,0.30571863055229187,10.810006141662598
1695668709946085888,1695668709946200154,-0.002354206284508109,0.10005359351634979,-0.21216163039207458,0.10393548011779785,0.22965343296527863,10.891274452209473
1695668709956125952,1695668709958298270,-0.016393451020121574,0.08886663615703583,-0.2174491137266159,0.02381841465830803,0.21430125832557678,10.93606948852539
1695668709966473216,1695668709966371748,-0.03193385899066925,0.05672396719455719,-0.2318502515554428,-0.14952586591243744,0.28062254190444946,11.042832374572754
1695668709976044032,1695668709976456125,-0.05421473830938339,0.03693481162190437,-0.24065238237380981,-0.368217408657074,0.41259700059890747,11.244622230529785
1695668709989163008,1695668709988567163,-0.07004059106111526,0.0036744801327586174,-0.2279067039489746,-0.6054864525794983,0.6951729655265808,11.609593391418457
1695668709996078848,1695668709996623563,-0.083206906914711,-0.0034804127644747496,-0.23031309247016907,-1.0462805032730103,0.9713613390922546,12.118668556213379
1695668710006077952,1695668710006706360,-0.10416542738676071,-0.004537930246442556,-0.22219857573509216,-1.5994794368743896,1.080979347229004,12.81181526184082
1695668710016124928,1695668710016780496,-0.11182891577482224,-0.004030488431453705,-0.20921041071414948,-2.1782076358795166,1.1599961519241333,13.576719284057617
1695668710026100992,1695668710026862508,-0.10457718372344971,-0.02341301552951336,-0.17318584024906158,-2.7863519191741943,1.3289977312088013,14.34043025970459
1695668710036168960,1695668710036940483,-0.0828467383980751,-0.042847372591495514,-0.14216108620166779,-3.3375208377838135,1.398402214050293,14.817245483398438
1695668710046118144,1695668710047021411,-0.04502298682928085,-0.05861562490463257,-0.09550533443689346,-3.774993419647217,1.6023527383804321,14.824512481689453
1695668710056016896,1695668710055096416,0.007607555016875267,-0.08650580793619156,-0.03776364028453827,-3.7278711795806885,1.6799356937408447,14.208778381347656
1695668710068849920,1695668710071222473,0.03442038223147392,-0.110197052359581,-0.010939719155430794,-3.4960129261016846,1.7587456703186035,13.107189178466797
1695668710076114944,1695668710077269440,0.03668273612856865,-0.12029905617237091,0.03202919289469719,-3.155656576156616,1.7500313520431519,11.86781120300293
1695668710086044160,1695668710086323873,0.010706366039812565,-0.12048611789941788,0.03427311033010483,-2.840465784072876,1.7105066776275635,10.799283981323242
1695668710098225152,1695668710100431570,-0.016156041994690895,-0.11905992031097412,0.04950493946671486,-2.766401767730713,1.6102896928787231,10.112740516662598
1695668710106066944,1695668710108504214,-0.03372485190629959,-0.11717624217271805,0.06352677196264267,-2.9068875312805176,1.4713703393936157,9.78830337524414
1695668710116071936,1695668710116571340,-0.0001013284781947732,-0.11602018028497696,0.06253679096698761,-3.1026227474212646,1.2561732530593872,9.647198677062988
1695668710126110976,1695668710126999721,0.07213639467954636,-0.12193924933671951,0.0620451346039772,-3.315169334411621,0.9640592336654663,9.432022094726562
1695668710136101120,1695668710137087448,0.12900805473327637,-0.11322589963674545,0.07256974279880524,-3.552325487136841,0.6049591302871704,9.00384521484375
1695668710146176000,1695668710149186140,0.16089047491550446,-0.09492464363574982,0.0749332457780838,-3.6240756511688232,0.133916974067688,8.365602493286133
1695668710156128768,1695668710157251647,0.14915065467357635,-0.08999399840831757,0.07879089564085007,-3.599768877029419,-0.5548239946365356,7.712818622589111
1695668710168903168,1695668710167328416,0.08556347340345383,-0.10576138645410538,0.06708939373493195,-3.4890103340148926,-1.3927586078643799,7.279229164123535
1695668710176022016,1695668710175007966,-0.008683786727488041,-0.10313698649406433,0.053798358887434006,-3.282522439956665,-2.208247184753418,7.336446762084961
1695668710186094080,1695668710187112137,-0.11169366538524628,-0.08125635236501694,0.03386570140719414,-3.072157621383667,-2.6951987743377686,7.908346652984619
1695668710196044032,1695668710197192417,-0.18208464980125427,-0.060380201786756516,0.030924275517463684,-2.8617444038391113,-2.5672225952148438,8.89007568359375
1695668710206081024,1695668710207283407,-0.17259939014911652,-0.02683527208864689,0.021569762378931046,-2.7747838497161865,-1.9370380640029907,9.9295654296875
1695668710217434880,1695668710218117635,-0.12820783257484436,0.014417766593396664,0.03097546473145485,-2.795663833618164,-1.2207283973693848,10.642387390136719
1695668710226068992,1695668710226195478,-0.07238733768463135,0.014855909161269665,0.03884943202137947,-2.6790473461151123,-0.6858406066894531,10.772218704223633
1695668710236114944,1695668710236285482,-0.05942229554057121,0.017219215631484985,0.02214292623102665,-2.39494252204895,-0.3185979425907135,10.465483665466309
1695668710246077952,1695668710246371113,-0.052913300693035126,-0.022226080298423767,0.026864657178521156,-2.057420015335083,-0.05681191012263298,10.019227027893066
1695668710256130816,1695668710258480465,-0.055350206792354584,-0.019811028614640236,0.013125678524374962,-1.6667468547821045,0.16508552432060242,9.644362449645996
1695668710266202880,1695668710266554657,-0.03935292363166809,-0.004665845539420843,0.011882315389811993,-1.3599990606307983,0.35297396779060364,9.442648887634277
1695668710276328192,1695668710276648668,-0.023575734347105026,0.028037751093506813,0.008281471207737923,-1.2825144529342651,0.524140477180481,9.345398902893066
1695668710286149120,1695668710288742669,0.017430966719985008,0.02671402134001255,0.01403820887207985,-1.28556227684021,0.6228775382041931,9.155996322631836
1695668710296152064,1695668710296790607,0.049218229949474335,0.00572400214150548,0.031329445540905,-1.26028573513031,0.7030518054962158,8.727422714233398
1695668710306174976,1695668710306879485,0.06746164709329605,-0.01672908291220665,0.032354846596717834,-1.0682501792907715,0.7754987478256226,8.072848320007324
1695668710316081920,1695668710317309688,0.06005384027957916,-0.020641280338168144,0.042797282338142395,-0.8795211911201477,0.7788686156272888,7.376947402954102
1695668710326097920,1695668710325383577,0.0350416861474514,-0.004829073790460825,0.05601288378238678,-0.7171025276184082,0.8160436749458313,6.801916122436523
1695668710336185088,1695668710335472745,-0.009038642048835754,0.0070703704841434956,0.06536436080932617,-0.7702707052230835,0.7990860342979431,6.51380729675293
1695668710346957056,1695668710349586463,-0.05465914309024811,0.018166450783610344,0.08249775320291519,-0.9585592746734619,0.8185320496559143,6.500392436981201
1695668710356237056,1695668710355648019,-0.06801661849021912,-0.0007403975469060242,0.08730657398700714,-1.1407630443572998,0.7883453965187073,6.59711217880249
1695668710366203136,1695668710365737893,-0.07976038753986359,0.0042435172945261,0.11878392845392227,-1.2727863788604736,0.7429839372634888,6.6888041496276855
1695668710376153856,1695668710375822395,-0.07741791009902954,0.023044133558869362,0.1285795271396637,-1.324446439743042,0.6748064160346985,6.704988479614258
1695668710386096896,1695668710385908973,-0.0832248255610466,0.0570455864071846,0.1478973925113678,-1.3992637395858765,0.5999672412872314,6.7153544425964355
1695668710396199936,1695668710395992142,-0.0970148965716362,0.07700642943382263,0.1560397893190384,-1.5380548238754272,0.48062264919281006,6.82623815536499
1695668710406147072,1695668710406216204,-0.10765406489372253,0.08496418595314026,0.15606747567653656,-1.662044644355774,0.34062162041664124,7.09231424331665
1695668710416156160,1695668710416302036,-0.12855736911296844,0.10430526733398438,0.16210006177425385,-1.7192490100860596,0.18624937534332275,7.528390884399414
1695668710426199808,1695668710426384089,-0.13246113061904907,0.10157271474599838,0.16793544590473175,-1.6814919710159302,0.06200111657381058,8.064838409423828
1695668710436156160,1695668710436467378,-0.11008711159229279,0.13783641159534454,0.17374852299690247,-1.5704740285873413,-0.07761184126138687,8.570459365844727
1695668710446230784,1695668710446551560,-0.06811344623565674,0.17593011260032654,0.15906699001789093,-1.4603065252304077,-0.22258426249027252,8.971123695373535
1695668710456482816,1695668710458656429,-0.0297263041138649,0.2016446441411972,0.15632596611976624,-1.3790216445922852,-0.3476150631904602,9.223404884338379
1695668710466212864,1695668710466726201,-0.0027570445090532303,0.207156702876091,0.1458369642496109,-1.2506695985794067,-0.41728201508522034,9.348555564880371
1695668710476052992,1695668710476821894,0.013834060169756413,0.2106339931488037,0.14781026542186737,-1.070894718170166,-0.4390464723110199,9.448196411132812
1695668710486304000,1695668710486911806,0.015549832955002785,0.20938634872436523,0.13523857295513153,-0.8762356042861938,-0.43944039940834045,9.580758094787598
1695668710496169216,1695668710496990475,0.02041180059313774,0.22085173428058624,0.12260007858276367,-0.7147915363311768,-0.4121672809123993,9.792890548706055
1695668710506205184,1695668710507081736,0.035380564630031586,0.21996067464351654,0.10680335015058517,-0.6049284338951111,-0.37420621514320374,10.110970497131348
1695668710516151040,1695668710517172299,0.040144141763448715,0.19947966933250427,0.11141342669725418,-0.5480810403823853,-0.3555017411708832,10.476892471313477
1695668710526245120,1695668710527245022,0.04810361564159393,0.1753888726234436,0.10425376147031784,-0.4466865658760071,-0.32183194160461426,10.847457885742188
1695668710536205056,1695668710537329648,0.04992922022938728,0.12835100293159485,0.09543489664793015,-0.3047671318054199,-0.2664162218570709,11.175042152404785
1695668710546097920,1695668710547415784,0.04893715679645538,0.09299824386835098,0.10167122632265091,-0.16512182354927063,-0.20075687766075134,11.460756301879883
1695668710556158976,1695668710555487238,0.045481737703084946,0.050767332315444946,0.09762188047170639,-0.03242577239871025,-0.18498273193836212,11.794647216796875
1695668710566076928,1695668710567574359,0.05473937466740608,0.0196868646889925,0.08517523109912872,0.06527235358953476,-0.17949680984020233,12.142803192138672
1695668710581912064,1695668710581693564,0.03882356733083725,-0.0036356046330183744,0.08807556331157684,0.0690036192536354,-0.19902300834655762,12.476197242736816
1695668710586137088,1695668710585716063,0.04792763665318489,-0.05718400329351425,0.08328337967395782,0.04298956319689751,-0.2638356387615204,12.802396774291992
1695668710596133888,1695668710595808459,0.05490690842270851,-0.0986822098493576,0.07225047796964645,-0.1379765421152115,-0.35962149500846863,13.077662467956543
